Answer.age	Answer.gender	Answer.language	Answer.time_in_minutes	Answer.tutorialInfo	competitor_s	competitor_v	distractor_s	distractor_v	img1	img2	img3	imptype	message	ParticipantGender	pos_competitor	pos_distractor	pos_target	pos_target.1	pos1	pos2	pos3	response	rt	target_s	target_v	trial	trialtype	workerid	logrt	half	third	redimptype	choice_location	MessageType
37	Male	English	2.87166666666667	[v2,v1,s1,s1]	sx	v1	s2	v2	s2_v2	s1_v1	sx_v1	simple_c	s1	male	3	1	2	2	distractor	target	competitor	target	4355	s1	v1	0	filler	0	8.3790798892866	1	1	unambiguous	2	accessory
37	Male	English	2.87166666666667	[v2,v1,s1,s1]	s1	vx	s2	v2	s1_vx	s1_v1	s2_v2	simple_c	v1	male	1	3	2	2	competitor	target	distractor	target	1560	s1	v1	1	filler	0	7.35244110024358	1	1	unambiguous	2	species
37	Male	English	2.87166666666667	[v2,v1,s1,s1]	s1	v1	s2	v2	sx_v1	s1_v1	s2_v2	simple	v1	male	2	3	1	1	target	competitor	distractor	competitor	3920	sx	v1	2	target	0	8.27384693278451	1	1	simple	2	species
37	Male	English	2.87166666666667	[v2,v1,s1,s1]	s1	v2	sx	v1	s1_v2	sx_v1	s1_v2	ambig	s1	male	3	2	1	1	target	distractor	competitor	target	2764	s1	v2	3	filler	0	7.92443418488756	1	1	ambiguous	1	accessory
37	Male	English	2.87166666666667	[v2,v1,s1,s1]	s2	v2	s2	vx	s1_v2	s2_v2	s2_vx	complex_c	s1	male	2	3	1	1	target	competitor	distractor	target	1568	s1	v2	4	filler	0	7.35755620091035	1	1	unambiguous	1	accessory
37	Male	English	2.87166666666667	[v2,v1,s1,s1]	s1	v2	s1	vx	s2_v2	s1_vx	s1_v2	complex_c	s2	male	3	2	1	1	target	distractor	competitor	target	1421	s2	v2	5	filler	0	7.2591161280971	1	1	unambiguous	1	accessory
37	Male	English	2.87166666666667	[v2,v1,s1,s1]	s1	v2	s2	v1	s1_vx	s1_v2	s2_v1	simple	s1	male	2	3	1	1	target	competitor	distractor	competitor	1716	s1	vx	6	target	0	7.44775128004791	1	1	simple	2	accessory
37	Male	English	2.87166666666667	[v2,v1,s1,s1]	s2	v2	s2	vx	s2_vx	s1_v2	s2_v2	complex_c	s1	male	3	1	2	2	distractor	target	competitor	target	2281	s1	v2	7	filler	0	7.73236922228439	1	1	unambiguous	2	accessory
37	Male	English	2.87166666666667	[v2,v1,s1,s1]	s1	v1	sx	v2	s1_v1	sx_v2	s1_v1	ambig	s1	male	1	2	3	3	competitor	distractor	target	competitor	1800	s1	v1	8	filler	0	7.49554194388426	1	1	ambiguous	1	accessory
37	Male	English	2.87166666666667	[v2,v1,s1,s1]	s1	vx	sx	v1	s1_vx	sx_v1	s2_v2	unambig	v2	male	1	2	3	3	competitor	distractor	target	target	1157	s2	v2	9	filler	0	7.05358572719368	1	1	unambiguous	3	species
37	Male	English	2.87166666666667	[v2,v1,s1,s1]	s1	v2	sx	v1	sx_v1	s1_v1	s1_v2	complex	s1	male	3	1	2	2	distractor	target	competitor	competitor	1677	s1	v1	10	target	0	7.42476176182321	1	1	complex	3	accessory
37	Male	English	2.87166666666667	[v2,v1,s1,s1]	s2	v2	s1	vx	s2_v2	s1_vx	s1_v2	complex	v2	male	1	2	3	3	competitor	distractor	target	target	2772	s1	v2	11	target	0	7.92732436030979	1	1	complex	3	species
37	Male	English	2.87166666666667	[v2,v1,s1,s1]	s1	v2	sx	v2	sx_v2	s1_v1	s1_v2	complex_c	v1	male	3	1	2	2	distractor	target	competitor	target	1985	s1	v1	12	filler	0	7.59337419312129	1	1	unambiguous	2	species
37	Male	English	2.87166666666667	[v2,v1,s1,s1]	s1	vx	s2	v1	s2_v1	s1_vx	sx_v2	unambig	v2	male	2	1	3	3	distractor	competitor	target	target	1251	sx	v2	13	filler	0	7.13169851046691	1	1	unambiguous	3	species
37	Male	English	2.87166666666667	[v2,v1,s1,s1]	s1	v2	sx	v2	sx_v2	s1_v1	s1_v2	complex_c	v1	male	3	1	2	2	distractor	target	competitor	target	1204	s1	v1	14	filler	0	7.09340462586877	1	1	unambiguous	2	species
37	Male	English	2.87166666666667	[v2,v1,s1,s1]	s2	v1	s1	v2	s1_v2	s2_vx	s2_v1	simple	s2	male	3	1	2	2	distractor	target	competitor	target	2158	s2	vx	15	target	0	7.67693714581808	1	1	simple	2	accessory
37	Male	English	2.87166666666667	[v2,v1,s1,s1]	s2	v1	sx	vx	sx_vx	s1_v2	s2_v1	unambig	s1	male	3	1	2	2	distractor	target	competitor	target	931	s1	v2	16	filler	0	6.83625927727707	1	1	unambiguous	2	accessory
37	Male	English	2.87166666666667	[v2,v1,s1,s1]	s2	v2	s2	vx	s1_v2	s2_vx	s2_v2	complex_c	s1	male	3	2	1	1	target	distractor	competitor	target	954	s1	v2	17	filler	0	6.86066367144829	1	1	unambiguous	1	accessory
37	Male	English	2.87166666666667	[v2,v1,s1,s1]	s1	vx	s2	v1	s1_vx	s1_v2	s2_v1	simple_c	v2	male	1	3	2	2	competitor	target	distractor	target	1321	s1	v2	18	filler	0	7.18614430452233	1	1	unambiguous	2	species
37	Male	English	2.87166666666667	[v2,v1,s1,s1]	s1	v1	s1	vx	s1_v1	s2_v2	s1_vx	simple_d	s2	male	1	3	2	2	competitor	target	distractor	target	1070	s2	v2	19	filler	0	6.97541392745595	1	1	unambiguous	2	accessory
37	Male	English	2.87166666666667	[v2,v1,s1,s1]	s1	v1	sx	v2	s2_vx	s1_v1	sx_v2	unambig	s2	male	2	3	1	1	target	competitor	distractor	target	1226	s2	vx	20	filler	0	7.11151211649616	1	1	unambiguous	1	accessory
37	Male	English	2.87166666666667	[v2,v1,s1,s1]	s2	v1	sx	v1	s2_v2	s2_v1	sx_v1	complex_c	v2	male	2	3	1	1	target	competitor	distractor	target	909	s2	v2	21	filler	0	6.81234509417748	1	1	unambiguous	1	species
37	Male	English	2.87166666666667	[v2,v1,s1,s1]	s2	v1	s1	vx	s2_v1	s1_vx	s1_v1	complex	v1	male	1	2	3	3	competitor	distractor	target	target	1669	s1	v1	22	target	0	7.41997992366183	1	1	complex	3	species
37	Male	English	2.87166666666667	[v2,v1,s1,s1]	s2	v1	sx	v2	sx_v2	s2_v1	s2_v1	ambig	s2	male	3	1	2	2	distractor	target	competitor	competitor	1192	s2	v1	23	filler	0	7.0833878476253	1	2	ambiguous	3	accessory
37	Male	English	2.87166666666667	[v2,v1,s1,s1]	s1	v1	sx	v2	s1_v1	sx_v2	s1_v1	ambig	s1	male	3	2	1	1	target	distractor	competitor	competitor	1229	s1	v1	24	filler	0	7.11395610956603	1	2	ambiguous	3	accessory
37	Male	English	2.87166666666667	[v2,v1,s1,s1]	s1	v2	s2	v1	s1_v2	s1_vx	s2_v1	simple	s1	male	1	3	2	2	competitor	target	distractor	competitor	1621	s1	vx	25	target	0	7.39079852173568	1	2	simple	1	accessory
37	Male	English	2.87166666666667	[v2,v1,s1,s1]	s1	v2	s2	vx	s2_vx	s1_v2	s2_v2	complex	v2	male	2	1	3	3	distractor	competitor	target	competitor	1523	s2	v2	26	target	0	7.32843735289516	1	2	complex	2	species
37	Male	English	2.87166666666667	[v2,v1,s1,s1]	s2	v2	s1	v1	s2_v2	sx_v2	s1_v1	simple	v2	male	1	3	2	2	competitor	target	distractor	target	2009	sx	v2	27	target	0	7.60539236481493	1	2	simple	2	species
37	Male	English	2.87166666666667	[v2,v1,s1,s1]	s2	v1	sx	v1	s2_v2	s2_v1	sx_v1	complex_c	v2	male	2	3	1	1	target	competitor	distractor	target	1506	s2	v2	28	filler	0	7.31721240835984	1	2	unambiguous	1	species
37	Male	English	2.87166666666667	[v2,v1,s1,s1]	s1	v2	sx	v1	sx_v1	s1_v2	s1_v2	ambig	v2	male	2	1	3	3	distractor	competitor	target	competitor	1095	s1	v2	29	filler	0	6.9985096422506	1	2	ambiguous	2	species
37	Male	English	2.87166666666667	[v2,v1,s1,s1]	s2	v1	s1	v2	s1_v2	s2_v1	s2_v1	ambig	s2	male	3	1	2	2	distractor	target	competitor	target	1303	s2	v1	30	filler	0	7.17242457712485	1	2	ambiguous	2	accessory
37	Male	English	2.87166666666667	[v2,v1,s1,s1]	s1	v1	s2	v2	s1_v1	sx_v1	s2_v2	simple	v1	male	1	3	2	2	competitor	target	distractor	target	1406	sx	v1	31	target	0	7.24850407237061	1	2	simple	2	species
37	Male	English	2.87166666666667	[v2,v1,s1,s1]	s1	v1	sx	v1	sx_v1	s1_v1	s1_v2	complex_c	v2	male	2	1	3	3	distractor	competitor	target	target	1226	s1	v2	32	filler	0	7.11151211649616	1	2	unambiguous	3	species
37	Male	English	2.87166666666667	[v2,v1,s1,s1]	s2	v1	s1	v2	s2_v1	s1_v2	s2_v1	ambig	v1	male	3	2	1	1	target	distractor	competitor	competitor	1741	s2	v1	33	filler	0	7.46221493976819	1	2	ambiguous	3	species
37	Male	English	2.87166666666667	[v2,v1,s1,s1]	s2	v2	sx	v1	s2_v2	s2_v1	sx_v1	complex	s2	male	1	3	2	2	competitor	target	distractor	target	1241	s2	v1	34	target	0	7.12367278520461	2	2	complex	2	accessory
37	Male	English	2.87166666666667	[v2,v1,s1,s1]	s1	v1	s2	v2	s2_v2	s1_v1	sx_v1	simple	v1	male	2	1	3	3	distractor	competitor	target	competitor	1848	sx	v1	35	target	0	7.52185925220163	2	2	simple	2	species
37	Male	English	2.87166666666667	[v2,v1,s1,s1]	s2	vx	s1	v2	s1_v2	s2_vx	s2_v1	simple_c	v1	male	2	1	3	3	distractor	competitor	target	target	1428	s2	v1	36	filler	0	7.26403014289953	2	2	unambiguous	3	species
37	Male	English	2.87166666666667	[v2,v1,s1,s1]	s1	v2	s2	v1	sx_v2	s2_v1	s1_v2	simple	v2	male	3	2	1	1	target	distractor	competitor	competitor	1473	sx	v2	37	target	0	7.29505641646263	2	2	simple	3	species
37	Male	English	2.87166666666667	[v2,v1,s1,s1]	s1	vx	s2	v2	s2_v2	s1_vx	sx_v1	unambig	v1	male	2	1	3	3	distractor	competitor	target	target	1011	sx	v1	38	filler	0	6.91869521902047	2	2	unambiguous	3	species
37	Male	English	2.87166666666667	[v2,v1,s1,s1]	s1	v2	s2	vx	s1_v2	s2_v2	s2_vx	complex	v2	male	1	3	2	2	competitor	target	distractor	target	1257	s2	v2	39	target	0	7.13648320859025	2	2	complex	2	species
37	Male	English	2.87166666666667	[v2,v1,s1,s1]	s1	v1	sx	v2	sx_v2	s1_v1	s1_v2	complex	s1	male	2	1	3	3	distractor	competitor	target	competitor	2374	s1	v2	40	target	0	7.77233157516961	2	2	complex	2	accessory
37	Male	English	2.87166666666667	[v2,v1,s1,s1]	s2	v2	sx	v1	s2_v2	s2_v1	sx_v1	complex	s2	male	1	3	2	2	competitor	target	distractor	target	1646	s2	v1	41	target	0	7.40610338123702	2	2	complex	2	accessory
37	Male	English	2.87166666666667	[v2,v1,s1,s1]	s2	v2	sx	v1	sx_v1	s2_v2	s2_v2	ambig	v2	male	3	1	2	2	distractor	target	competitor	target	1312	s2	v2	42	filler	0	7.17930796950403	2	2	ambiguous	2	species
37	Male	English	2.87166666666667	[v2,v1,s1,s1]	s1	v2	s2	v1	sx_v2	s2_v1	s1_v2	simple	v2	male	3	2	1	1	target	distractor	competitor	competitor	1398	sx	v2	43	target	0	7.24279792279376	2	2	simple	3	species
37	Male	English	2.87166666666667	[v2,v1,s1,s1]	s1	v1	s2	v2	s2_v2	s1_v1	sx_v1	simple	v1	male	2	1	3	3	distractor	competitor	target	target	2010	sx	v1	44	target	0	7.60589000105312	2	2	simple	3	species
37	Male	English	2.87166666666667	[v2,v1,s1,s1]	s1	v1	sx	v2	sx_v2	s1_v1	s1_v2	complex	s1	male	2	1	3	3	distractor	competitor	target	competitor	2384	s1	v2	45	target	0	7.77653502818524	2	3	complex	2	accessory
37	Male	English	2.87166666666667	[v2,v1,s1,s1]	s1	v2	sx	v2	sx_v2	s2_v1	s1_v2	simple_d	s2	male	3	1	2	2	distractor	target	competitor	target	1055	s2	v1	46	filler	0	6.96129604591017	2	3	unambiguous	2	accessory
37	Male	English	2.87166666666667	[v2,v1,s1,s1]	s1	v2	s2	vx	s1_v2	s2_vx	s2_v2	complex	v2	male	1	2	3	3	competitor	distractor	target	competitor	2034	s2	v2	47	target	0	7.61775957660851	2	3	complex	1	species
37	Male	English	2.87166666666667	[v2,v1,s1,s1]	s1	v2	sx	v1	sx_v1	s1_v2	s1_v1	complex	s1	male	2	1	3	3	distractor	competitor	target	target	6474	s1	v1	48	target	0	8.77554943448619	2	3	complex	3	accessory
37	Male	English	2.87166666666667	[v2,v1,s1,s1]	s1	v1	s2	v2	s1_v1	s2_v2	s1_vx	simple	s1	male	1	2	3	3	competitor	distractor	target	competitor	2406	s1	vx	49	target	0	7.78572089653462	2	3	simple	1	accessory
37	Male	English	2.87166666666667	[v2,v1,s1,s1]	s2	v2	sx	v2	s2_v2	sx_v2	s1_v1	simple_d	v1	male	1	2	3	3	competitor	distractor	target	target	1444	s1	v1	50	filler	0	7.27517231945277	2	3	unambiguous	3	species
37	Male	English	2.87166666666667	[v2,v1,s1,s1]	s1	v2	s2	vx	s2_vx	s1_v2	s2_v2	complex	v2	male	2	1	3	3	distractor	competitor	target	competitor	2120	s2	v2	51	target	0	7.65917136766606	2	3	complex	2	species
37	Male	English	2.87166666666667	[v2,v1,s1,s1]	s1	vx	s2	v1	sx_v2	s2_v1	s1_vx	unambig	v2	male	3	2	1	1	target	distractor	competitor	target	1280	sx	v2	52	filler	0	7.15461535691366	2	3	unambiguous	1	species
37	Male	English	2.87166666666667	[v2,v1,s1,s1]	s1	vx	s2	v1	s1_v2	s1_vx	s2_v1	simple_c	v2	male	2	3	1	1	target	competitor	distractor	target	791	s1	v2	53	filler	0	6.67329796776765	2	3	unambiguous	1	species
37	Male	English	2.87166666666667	[v2,v1,s1,s1]	s2	v2	sx	vx	sx_vx	s2_v2	s1_v1	unambig	s1	male	2	1	3	3	distractor	competitor	target	target	1040	s1	v1	54	filler	0	6.94697599213542	2	3	unambiguous	3	accessory
37	Male	English	2.87166666666667	[v2,v1,s1,s1]	s1	v1	s1	vx	s2_v1	s1_vx	s1_v1	complex_c	s2	male	3	2	1	1	target	distractor	competitor	target	1158	s2	v1	55	filler	0	7.05444965813294	2	3	unambiguous	1	accessory
37	Male	English	2.87166666666667	[v2,v1,s1,s1]	s1	v1	sx	v1	s1_v1	sx_v1	s2_v2	simple_d	v2	male	1	2	3	3	competitor	distractor	target	target	954	s2	v2	56	filler	0	6.86066367144829	2	3	unambiguous	3	species
37	Male	English	2.87166666666667	[v2,v1,s1,s1]	s2	v1	sx	v2	s2_v1	sx_v2	s2_v1	ambig	s2	male	1	2	3	3	competitor	distractor	target	target	1994	s2	v1	57	filler	0	7.59789795052178	2	3	ambiguous	3	accessory
37	Male	English	2.87166666666667	[v2,v1,s1,s1]	s2	vx	sx	v2	s2_vx	s1_v1	sx_v2	unambig	s1	male	1	3	2	2	competitor	target	distractor	target	1040	s1	v1	58	filler	0	6.94697599213542	2	3	unambiguous	2	accessory
37	Male	English	2.87166666666667	[v2,v1,s1,s1]	sx	v1	s2	v2	sx_v1	s1_v1	s2_v2	simple_c	s1	male	1	3	2	2	competitor	target	distractor	target	846	s1	v1	59	filler	0	6.74051935960622	2	3	unambiguous	2	accessory
37	Male	English	2.87166666666667	[v2,v1,s1,s1]	s1	v1	s2	v2	s1_vx	s1_v1	s2_v2	simple	s1	male	2	3	1	1	target	competitor	distractor	target	1765	s1	vx	60	target	0	7.4759059693674	2	3	simple	1	accessory
37	Male	English	2.87166666666667	[v2,v1,s1,s1]	s1	v2	sx	v2	sx_v2	s2_v1	s1_v2	simple_d	s2	male	3	1	2	2	distractor	target	competitor	target	1202	s2	v1	61	filler	0	7.09174211509515	2	3	unambiguous	2	accessory
37	Male	English	2.87166666666667	[v2,v1,s1,s1]	s2	v2	sx	vx	s2_v2	sx_vx	s1_v1	unambig	v1	male	1	2	3	3	competitor	distractor	target	target	1134	s1	v1	62	filler	0	7.0335064842877	2	3	unambiguous	3	species
37	Male	English	2.87166666666667	[v2,v1,s1,s1]	s2	v2	s2	vx	s2_vx	s1_v2	s2_v2	complex_c	s1	male	3	1	2	2	distractor	target	competitor	target	1078	s1	v2	63	filler	0	6.98286275146894	2	3	unambiguous	2	accessory
37	Male	English	2.87166666666667	[v2,v1,s1,s1]	s1	v1	sx	v1	sx_v1	s1_v2	s1_v1	complex_c	v2	male	3	1	2	2	distractor	target	competitor	target	931	s1	v2	64	filler	0	6.83625927727707	2	3	unambiguous	2	species
37	Male	English	2.87166666666667	[v2,v1,s1,s1]	s1	v1	sx	v1	s2_v2	s1_v1	sx_v1	simple_d	s2	male	2	3	1	1	target	competitor	distractor	target	824	s2	v2	65	filler	0	6.71417052990947	2	3	unambiguous	1	accessory
26	Female	English	2.64555	[v2,v1,v2,s1]	s1	v1	s1	vx	s2_v2	s1_v1	s1_vx	simple_d	s2	female	2	3	1	1	target	competitor	distractor	target	1791	s2	v2	0	filler	1	7.49052940206071	1	1	unambiguous	1	accessory
26	Female	English	2.64555	[v2,v1,v2,s1]	s1	v1	s2	vx	s2_vx	s2_v1	s1_v1	complex	v1	female	3	1	2	2	distractor	target	competitor	target	4096	s2	v1	1	target	1	8.31776616671934	1	1	complex	2	species
26	Female	English	2.64555	[v2,v1,v2,s1]	s1	v2	sx	v2	s1_v1	s1_v2	sx_v2	complex_c	v1	female	2	3	1	1	target	competitor	distractor	target	1785	s1	v1	2	filler	1	7.48717369421374	1	1	unambiguous	1	species
26	Female	English	2.64555	[v2,v1,v2,s1]	s2	vx	sx	v2	s2_vx	sx_v2	s1_v1	unambig	s1	female	1	2	3	3	competitor	distractor	target	target	1703	s1	v1	3	filler	1	7.44014668066269	1	1	unambiguous	3	accessory
26	Female	English	2.64555	[v2,v1,v2,s1]	s1	v2	s2	v1	s2_v1	s1_vx	s1_v2	simple	s1	female	3	1	2	2	distractor	target	competitor	competitor	3023	s1	vx	4	target	1	8.01400499477946	1	1	simple	3	accessory
26	Female	English	2.64555	[v2,v1,v2,s1]	s2	vx	sx	v2	s2_vx	sx_v2	s1_v1	unambig	v1	female	1	2	3	3	competitor	distractor	target	target	1937	s1	v1	5	filler	1	7.568895663407	1	1	unambiguous	3	species
26	Female	English	2.64555	[v2,v1,v2,s1]	s1	vx	s2	v1	s1_v2	s2_v1	s1_vx	simple_c	v2	female	3	2	1	1	target	distractor	competitor	target	1374	s1	v2	6	filler	1	7.22548147278229	1	1	unambiguous	1	species
26	Female	English	2.64555	[v2,v1,v2,s1]	s2	v2	s1	v1	s2_v2	sx_v2	s1_v1	simple	v2	female	1	3	2	2	competitor	target	distractor	competitor	2439	sx	v2	7	target	1	7.79934339821592	1	1	simple	1	species
26	Female	English	2.64555	[v2,v1,v2,s1]	s2	v1	sx	v2	s2_v2	s2_v1	sx_v2	complex	s2	female	2	3	1	1	target	competitor	distractor	target	4144	s2	v2	8	target	1	8.32941678393932	1	1	complex	1	accessory
26	Female	English	2.64555	[v2,v1,v2,s1]	s1	v1	sx	v2	s1_v1	sx_v2	s2_vx	unambig	s2	female	1	2	3	3	competitor	distractor	target	target	1368	s2	vx	9	filler	1	7.2211050981825	1	1	unambiguous	3	accessory
26	Female	English	2.64555	[v2,v1,v2,s1]	s2	v2	s2	vx	s1_v1	s2_v2	s2_vx	simple_d	s1	female	2	3	1	1	target	competitor	distractor	target	1336	s1	v1	10	filler	1	7.19743535409659	1	1	unambiguous	1	accessory
26	Female	English	2.64555	[v2,v1,v2,s1]	s1	v1	sx	v2	sx_v2	s1_v2	s1_v1	complex	s1	female	3	1	2	2	distractor	target	competitor	target	2232	s1	v2	11	target	1	7.7106533235012	1	1	complex	2	accessory
26	Female	English	2.64555	[v2,v1,v2,s1]	s1	vx	sx	v1	sx_v1	s2_v2	s1_vx	unambig	v2	female	3	1	2	2	distractor	target	competitor	target	3096	s2	v2	12	filler	1	8.03786623470962	1	1	unambiguous	2	species
26	Female	English	2.64555	[v2,v1,v2,s1]	s2	v2	sx	v2	s2_v2	s2_v1	sx_v2	complex_c	v1	female	1	3	2	2	competitor	target	distractor	target	1551	s2	v1	13	filler	1	7.34665516317654	1	1	unambiguous	2	species
26	Female	English	2.64555	[v2,v1,v2,s1]	s1	v2	s1	vx	s2_v1	s1_vx	s1_v2	simple_d	v1	female	3	2	1	1	target	distractor	competitor	target	5664	s2	v1	14	filler	1	8.64188563537355	1	1	unambiguous	1	species
26	Female	English	2.64555	[v2,v1,v2,s1]	s2	v1	s1	v2	s2_v1	s2_vx	s1_v2	simple	s2	female	1	3	2	2	competitor	target	distractor	competitor	2336	s2	vx	15	target	1	7.75619534394812	1	1	simple	1	accessory
26	Female	English	2.64555	[v2,v1,v2,s1]	s2	v2	s2	vx	s2_vx	s1_v2	s2_v2	complex_c	s1	female	3	1	2	2	distractor	target	competitor	target	1911	s1	v2	16	filler	1	7.55538194424027	1	1	unambiguous	2	accessory
26	Female	English	2.64555	[v2,v1,v2,s1]	s1	v2	s2	v1	sx_v2	s1_v2	s2_v1	simple	v2	female	2	3	1	1	target	competitor	distractor	competitor	1025	sx	v2	17	target	1	6.93244789157251	1	1	simple	2	species
26	Female	English	2.64555	[v2,v1,v2,s1]	sx	v2	s2	v1	sx_v2	s1_v2	s2_v1	simple_c	s1	female	1	3	2	2	competitor	target	distractor	target	887	s1	v2	18	filler	1	6.78784498230958	1	1	unambiguous	2	accessory
26	Female	English	2.64555	[v2,v1,v2,s1]	s1	v2	s2	vx	s2_vx	s1_v2	s2_v2	complex	v2	female	2	1	3	3	distractor	competitor	target	target	1696	s2	v2	19	target	1	7.43602781635185	1	1	complex	3	species
26	Female	English	2.64555	[v2,v1,v2,s1]	s2	vx	s1	v2	s2_v1	s2_vx	s1_v2	simple_c	v1	female	2	3	1	1	target	competitor	distractor	target	1654	s2	v1	20	filler	1	7.41095187558364	1	1	unambiguous	1	species
26	Female	English	2.64555	[v2,v1,v2,s1]	s2	v1	s2	vx	s2_vx	s2_v1	s1_v1	complex_c	s1	female	2	1	3	3	distractor	competitor	target	target	1262	s1	v1	21	filler	1	7.14045304310116	1	1	unambiguous	3	accessory
26	Female	English	2.64555	[v2,v1,v2,s1]	sx	v2	s1	v1	s2_v2	s1_v1	sx_v2	simple_c	s2	female	3	2	1	1	target	distractor	competitor	target	1296	s2	v2	22	filler	1	7.16703787691222	1	1	unambiguous	1	accessory
26	Female	English	2.64555	[v2,v1,v2,s1]	s1	v1	s2	v2	s1_v1	s2_v2	s1_v1	ambig	s1	female	3	2	1	1	target	distractor	competitor	target	1096	s1	v1	23	filler	1	6.99942246750796	1	2	ambiguous	1	accessory
26	Female	English	2.64555	[v2,v1,v2,s1]	s2	v2	s1	v1	sx_v2	s2_v2	s1_v1	simple	v2	female	2	3	1	1	target	competitor	distractor	competitor	1278	sx	v2	24	target	1	7.15305163493748	1	2	simple	2	species
26	Female	English	2.64555	[v2,v1,v2,s1]	s2	v2	sx	v2	s2_v2	sx_v2	s1_v1	simple_d	v1	female	1	2	3	3	competitor	distractor	target	target	1312	s1	v1	25	filler	1	7.17930796950403	1	2	unambiguous	3	species
26	Female	English	2.64555	[v2,v1,v2,s1]	s1	v2	s1	vx	s2_v1	s1_vx	s1_v2	simple_d	s2	female	3	2	1	1	target	distractor	competitor	target	1495	s2	v1	26	filler	1	7.30988148582479	1	2	unambiguous	1	accessory
26	Female	English	2.64555	[v2,v1,v2,s1]	s1	v2	sx	v1	s1_v1	s1_v2	sx_v1	complex	s1	female	2	3	1	1	target	competitor	distractor	target	1680	s1	v1	27	target	1	7.4265490723973	1	2	complex	1	accessory
26	Female	English	2.64555	[v2,v1,v2,s1]	s1	v2	s2	v1	s2_v1	s1_vx	s1_v2	simple	s1	female	3	1	2	2	distractor	target	competitor	competitor	1768	s1	vx	28	target	1	7.47760424319759	1	2	simple	3	accessory
26	Female	English	2.64555	[v2,v1,v2,s1]	s2	v1	s1	vx	s1_vx	s1_v1	s2_v1	complex	v1	female	3	1	2	2	distractor	target	competitor	target	1472	s1	v1	29	target	1	7.29437729928882	1	2	complex	2	species
26	Female	English	2.64555	[v2,v1,v2,s1]	s1	v1	s1	vx	s1_vx	s1_v1	s2_v1	complex_c	s2	female	2	1	3	3	distractor	competitor	target	target	1199	s2	v1	30	filler	1	7.08924315502751	1	2	unambiguous	3	accessory
26	Female	English	2.64555	[v2,v1,v2,s1]	s1	v2	s1	vx	s1_vx	s1_v2	s2_v2	complex_c	s2	female	2	1	3	3	distractor	competitor	target	target	1039	s2	v2	31	filler	1	6.94601399109923	1	2	unambiguous	3	accessory
26	Female	English	2.64555	[v2,v1,v2,s1]	s2	v2	s1	v1	s1_v1	s2_v2	s2_v2	ambig	s2	female	2	1	3	3	distractor	competitor	target	competitor	1165	s2	v2	32	filler	1	7.0604763659998	1	2	ambiguous	2	accessory
26	Female	English	2.64555	[v2,v1,v2,s1]	s1	v1	sx	v2	s1_v1	s1_v2	sx_v2	complex	s1	female	1	3	2	2	competitor	target	distractor	target	1152	s1	v2	33	target	1	7.04925484125584	1	2	complex	2	accessory
26	Female	English	2.64555	[v2,v1,v2,s1]	s1	v2	s2	v1	s1_v2	s1_v2	s2_v1	ambig	s1	female	1	3	2	2	competitor	target	distractor	target	824	s1	v2	34	filler	1	6.71417052990947	2	2	ambiguous	2	accessory
26	Female	English	2.64555	[v2,v1,v2,s1]	s1	v2	s1	vx	s1_vx	s2_v2	s1_v2	complex_c	s2	female	3	1	2	2	distractor	target	competitor	target	864	s2	v2	35	filler	1	6.76157276880406	2	2	unambiguous	2	accessory
26	Female	English	2.64555	[v2,v1,v2,s1]	s2	v2	s1	vx	s1_vx	s2_v2	s1_v2	complex	v2	female	2	1	3	3	distractor	competitor	target	target	1104	s1	v2	36	target	1	7.00669522683704	2	2	complex	3	species
26	Female	English	2.64555	[v2,v1,v2,s1]	s2	v1	s2	vx	s2_v1	s1_v1	s2_vx	complex_c	s1	female	1	3	2	2	competitor	target	distractor	target	920	s1	v1	37	filler	1	6.82437367004309	2	2	unambiguous	2	accessory
26	Female	English	2.64555	[v2,v1,v2,s1]	s1	v1	sx	v1	s1_v1	s1_v2	sx_v1	complex_c	v2	female	1	3	2	2	competitor	target	distractor	target	777	s1	v2	38	filler	1	6.65544035036765	2	2	unambiguous	2	species
26	Female	English	2.64555	[v2,v1,v2,s1]	s1	v2	sx	v2	sx_v2	s1_v2	s1_v1	complex_c	v1	female	2	1	3	3	distractor	competitor	target	target	855	s1	v1	39	filler	1	6.75110146893676	2	2	unambiguous	3	species
26	Female	English	2.64555	[v2,v1,v2,s1]	s2	v2	sx	v2	sx_v2	s2_v2	s1_v1	simple_d	v1	female	2	1	3	3	distractor	competitor	target	target	1414	s1	v1	40	filler	1	7.25417784645652	2	2	unambiguous	3	species
26	Female	English	2.64555	[v2,v1,v2,s1]	s2	v1	s1	v2	s2_v1	s1_v2	s2_v1	ambig	s2	female	1	2	3	3	competitor	distractor	target	target	1336	s2	v1	41	filler	1	7.19743535409659	2	2	ambiguous	3	accessory
26	Female	English	2.64555	[v2,v1,v2,s1]	s1	v2	sx	v2	sx_v2	s1_v2	s1_v1	complex_c	v1	female	2	1	3	3	distractor	competitor	target	target	1504	s1	v1	42	filler	1	7.31588350450979	2	2	unambiguous	3	species
26	Female	English	2.64555	[v2,v1,v2,s1]	s2	v2	sx	v1	s2_v2	s2_v2	sx_v1	ambig	s2	female	1	3	2	2	competitor	target	distractor	target	1182	s2	v2	43	filler	1	7.07496319796604	2	2	ambiguous	2	accessory
26	Female	English	2.64555	[v2,v1,v2,s1]	s2	v1	sx	vx	sx_vx	s1_v2	s2_v1	unambig	v2	female	3	1	2	2	distractor	target	competitor	target	1904	s1	v2	44	filler	1	7.55171221535131	2	2	unambiguous	2	species
26	Female	English	2.64555	[v2,v1,v2,s1]	s1	v1	sx	v2	s1_v1	sx_v2	s1_v1	ambig	s1	female	3	2	1	1	target	distractor	competitor	competitor	1399	s1	v1	45	filler	1	7.24351297466548	2	3	ambiguous	3	accessory
26	Female	English	2.64555	[v2,v1,v2,s1]	s2	v2	s1	v1	s2_v2	s2_v2	s1_v1	ambig	v2	female	1	3	2	2	competitor	target	distractor	target	992	s2	v2	46	filler	1	6.89972310728487	2	3	ambiguous	2	species
26	Female	English	2.64555	[v2,v1,v2,s1]	s1	v1	s2	vx	s2_v1	s1_v1	s2_vx	complex	v1	female	2	3	1	1	target	competitor	distractor	competitor	913	s2	v1	47	target	1	6.81673588059497	2	3	complex	2	species
26	Female	English	2.64555	[v2,v1,v2,s1]	s1	vx	sx	v2	s1_vx	s2_v1	sx_v2	unambig	s2	female	1	3	2	2	competitor	target	distractor	target	807	s2	v1	48	filler	1	6.69332366826995	2	3	unambiguous	2	accessory
26	Female	English	2.64555	[v2,v1,v2,s1]	sx	v1	s1	v2	s1_v2	s2_v1	sx_v1	simple_c	s2	female	3	1	2	2	distractor	target	competitor	target	1017	s2	v1	49	filler	1	6.92461239604856	2	3	unambiguous	2	accessory
26	Female	English	2.64555	[v2,v1,v2,s1]	s2	v2	s1	v1	s2_v2	s1_v1	sx_v2	simple	v2	female	1	2	3	3	competitor	distractor	target	competitor	1224	sx	v2	50	target	1	7.10987946307227	2	3	simple	1	species
26	Female	English	2.64555	[v2,v1,v2,s1]	s1	v2	sx	v1	s1_v2	sx_v1	s1_v2	ambig	v2	female	1	2	3	3	competitor	distractor	target	target	1759	s1	v2	51	filler	1	7.47250074473756	2	3	ambiguous	3	species
26	Female	English	2.64555	[v2,v1,v2,s1]	s2	v1	sx	v2	s2_v1	sx_v2	s2_v2	complex	s2	female	1	2	3	3	competitor	distractor	target	target	1071	s2	v2	52	target	1	6.97634807044775	2	3	complex	3	accessory
26	Female	English	2.64555	[v2,v1,v2,s1]	s1	v1	s2	vx	s2_vx	sx_v2	s1_v1	unambig	v2	female	3	1	2	2	distractor	target	competitor	target	1304	sx	v2	53	filler	1	7.1731917424866	2	3	unambiguous	2	species
26	Female	English	2.64555	[v2,v1,v2,s1]	s1	v2	s2	v1	s1_vx	s1_v2	s2_v1	simple	s1	female	2	3	1	1	target	competitor	distractor	competitor	936	s1	vx	54	target	1	6.84161547647759	2	3	simple	2	accessory
26	Female	English	2.64555	[v2,v1,v2,s1]	s1	v1	s2	v2	s2_v2	s1_v1	s1_vx	simple	s1	female	2	1	3	3	distractor	competitor	target	competitor	1174	s1	vx	55	target	1	7.06817200038804	2	3	simple	2	accessory
26	Female	English	2.64555	[v2,v1,v2,s1]	s1	v2	s2	v1	s1_v2	s2_v1	s1_vx	simple	s1	female	1	2	3	3	competitor	distractor	target	competitor	1352	s1	vx	56	target	1	7.20934025660291	2	3	simple	1	accessory
26	Female	English	2.64555	[v2,v1,v2,s1]	s1	v2	sx	v1	sx_v1	s1_v2	s1_v2	ambig	v2	female	2	1	3	3	distractor	competitor	target	competitor	1112	s1	v2	57	filler	1	7.01391547481053	2	3	ambiguous	2	species
26	Female	English	2.64555	[v2,v1,v2,s1]	s1	v1	sx	v2	sx_v2	s1_v2	s1_v1	complex	s1	female	3	1	2	2	distractor	target	competitor	target	1464	s1	v2	58	target	1	7.28892769452126	2	3	complex	2	accessory
26	Female	English	2.64555	[v2,v1,v2,s1]	s2	v2	s1	vx	s1_vx	s1_v2	s2_v2	complex	v2	female	3	1	2	2	distractor	target	competitor	target	1151	s1	v2	59	target	1	7.04838640872188	2	3	complex	2	species
26	Female	English	2.64555	[v2,v1,v2,s1]	s2	v2	s1	v1	s1_v1	s2_v2	s2_vx	simple	s2	female	2	1	3	3	distractor	competitor	target	target	1135	s2	vx	60	target	1	7.0343879299155	2	3	simple	3	accessory
26	Female	English	2.64555	[v2,v1,v2,s1]	s2	v2	sx	v2	s2_v1	sx_v2	s2_v2	complex_c	v1	female	3	2	1	1	target	distractor	competitor	target	1247	s2	v1	61	filler	1	7.12849594568004	2	3	unambiguous	1	species
26	Female	English	2.64555	[v2,v1,v2,s1]	s1	v2	sx	vx	s1_v2	s2_v1	sx_vx	unambig	s2	female	1	3	2	2	competitor	target	distractor	target	879	s2	v1	62	filler	1	6.77878489768518	2	3	unambiguous	2	accessory
26	Female	English	2.64555	[v2,v1,v2,s1]	s1	vx	s2	v1	s1_vx	s1_v2	s2_v1	simple_c	v2	female	1	3	2	2	competitor	target	distractor	target	888	s1	v2	63	filler	1	6.78897174299217	2	3	unambiguous	2	species
26	Female	English	2.64555	[v2,v1,v2,s1]	s2	v1	s1	v2	s1_v2	s2_v1	sx_v1	simple	v1	female	2	1	3	3	distractor	competitor	target	competitor	1056	sx	v1	64	target	1	6.96224346426621	2	3	simple	2	species
26	Female	English	2.64555	[v2,v1,v2,s1]	s1	v1	sx	vx	sx_vx	s2_v2	s1_v1	unambig	s2	female	3	1	2	2	distractor	target	competitor	target	888	s2	v2	65	filler	1	6.78897174299217	2	3	unambiguous	2	accessory
33	male	english	2.91275	[v2,v1,v2,s1]	s1	v1	s2	v2	s2_v2	s1_v1	s1_v1	ambig	v1	male	3	1	2	2	distractor	target	competitor	target	10243	s1	v1	0	filler	2	9.23434982443653	1	1	ambiguous	2	species
33	male	english	2.91275	[v2,v1,v2,s1]	s2	v1	sx	vx	s2_v1	s1_v2	sx_vx	unambig	s1	male	1	3	2	2	competitor	target	distractor	target	1405	s1	v2	1	filler	2	7.24779258176785	1	1	unambiguous	2	accessory
33	male	english	2.91275	[v2,v1,v2,s1]	s1	v2	sx	v1	s1_v2	sx_v1	s1_v2	ambig	v2	male	3	2	1	1	target	distractor	competitor	competitor	3015	s1	v2	2	filler	2	8.01135510916129	1	1	ambiguous	3	species
33	male	english	2.91275	[v2,v1,v2,s1]	s1	v1	sx	v2	s1_v1	s1_v1	sx_v2	ambig	s1	male	1	3	2	2	competitor	target	distractor	target	1783	s1	v1	3	filler	2	7.48605261786314	1	1	ambiguous	2	accessory
33	male	english	2.91275	[v2,v1,v2,s1]	s2	v1	sx	v2	s2_v1	s2_v1	sx_v2	ambig	s2	male	1	3	2	2	competitor	target	distractor	target	1181	s2	v1	4	filler	2	7.07411681619736	1	1	ambiguous	2	accessory
33	male	english	2.91275	[v2,v1,v2,s1]	s2	v2	sx	v2	sx_v2	s2_v1	s2_v2	complex_c	v1	male	3	1	2	2	distractor	target	competitor	target	1951	s2	v1	5	filler	2	7.57609734062311	1	1	unambiguous	2	species
33	male	english	2.91275	[v2,v1,v2,s1]	s1	v1	sx	v1	s1_v2	sx_v1	s1_v1	complex_c	v2	male	3	2	1	1	target	distractor	competitor	target	1254	s1	v2	6	filler	2	7.13409372119287	1	1	unambiguous	1	species
33	male	english	2.91275	[v2,v1,v2,s1]	s2	v1	s1	v2	s1_v2	sx_v1	s2_v1	simple	v1	male	3	1	2	2	distractor	target	competitor	target	5030	sx	v1	7	target	2	8.52317526309379	1	1	simple	2	species
33	male	english	2.91275	[v2,v1,v2,s1]	s1	v1	sx	v2	s1_v2	s1_v1	sx_v2	complex	s1	male	2	3	1	1	target	competitor	distractor	competitor	5475	s1	v2	8	target	2	8.6079475546847	1	1	complex	2	accessory
33	male	english	2.91275	[v2,v1,v2,s1]	s2	v2	s1	v1	s2_v2	s2_v2	s1_v1	ambig	s2	male	1	3	2	2	competitor	target	distractor	target	2292	s2	v2	9	filler	2	7.73718007783463	1	1	ambiguous	2	accessory
33	male	english	2.91275	[v2,v1,v2,s1]	s2	v2	s2	vx	s1_v2	s2_v2	s2_vx	complex_c	s1	male	2	3	1	1	target	competitor	distractor	target	1470	s1	v2	10	filler	2	7.29301767977278	1	1	unambiguous	1	accessory
33	male	english	2.91275	[v2,v1,v2,s1]	s1	v2	sx	v1	s1_v2	s1_v2	sx_v1	ambig	v2	male	1	3	2	2	competitor	target	distractor	target	2557	s1	v2	11	filler	2	7.84658997529119	1	1	ambiguous	2	species
33	male	english	2.91275	[v2,v1,v2,s1]	s2	v1	s1	v2	s1_v2	s2_v1	s2_v1	ambig	v1	male	3	1	2	2	distractor	target	competitor	target	1458	s2	v1	12	filler	2	7.2848209125686	1	1	ambiguous	2	species
33	male	english	2.91275	[v2,v1,v2,s1]	s1	v2	s2	vx	s1_v2	s2_v2	s2_vx	complex	v2	male	1	3	2	2	competitor	target	distractor	target	1799	s2	v2	13	target	2	7.49498623395053	1	1	complex	2	species
33	male	english	2.91275	[v2,v1,v2,s1]	s1	v1	s2	vx	s2_vx	s1_v1	s2_v1	complex	v1	male	2	1	3	3	distractor	competitor	target	competitor	1950	s2	v1	14	target	2	7.57558465155779	1	1	complex	2	species
33	male	english	2.91275	[v2,v1,v2,s1]	s1	v1	s1	vx	s2_v2	s1_vx	s1_v1	simple_d	s2	male	3	2	1	1	target	distractor	competitor	target	1978	s2	v2	15	filler	2	7.58984151218266	1	1	unambiguous	1	accessory
33	male	english	2.91275	[v2,v1,v2,s1]	s2	v1	s1	v2	sx_v1	s2_v1	s1_v2	simple	v1	male	2	3	1	1	target	competitor	distractor	target	3292	sx	v1	16	target	2	8.09925056179696	1	1	simple	1	species
33	male	english	2.91275	[v2,v1,v2,s1]	s1	v2	sx	v2	sx_v2	s1_v2	s1_v1	complex_c	v1	male	2	1	3	3	distractor	competitor	target	target	2066	s1	v1	17	filler	2	7.63336964967958	1	1	unambiguous	3	species
33	male	english	2.91275	[v2,v1,v2,s1]	s1	v2	sx	vx	sx_vx	s1_v2	s2_v1	unambig	s2	male	2	1	3	3	distractor	competitor	target	target	975	s2	v1	18	filler	2	6.88243747099785	1	1	unambiguous	3	accessory
33	male	english	2.91275	[v2,v1,v2,s1]	s2	v2	s2	vx	s1_v2	s2_v2	s2_vx	complex_c	s1	male	2	3	1	1	target	competitor	distractor	target	1153	s1	v2	19	filler	2	7.05012252026906	1	1	unambiguous	1	accessory
33	male	english	2.91275	[v2,v1,v2,s1]	s2	v1	s2	vx	s2_vx	s1_v2	s2_v1	simple_d	s1	male	3	1	2	2	distractor	target	competitor	target	887	s1	v2	20	filler	2	6.78784498230958	1	1	unambiguous	2	accessory
33	male	english	2.91275	[v2,v1,v2,s1]	s1	v1	sx	v2	s1_v1	s1_v1	sx_v2	ambig	v1	male	1	3	2	2	competitor	target	distractor	target	1140	s1	v1	21	filler	2	7.03878354138854	1	1	ambiguous	2	species
33	male	english	2.91275	[v2,v1,v2,s1]	s1	v2	s2	v1	s1_v2	s2_v1	s1_vx	simple	s1	male	1	2	3	3	competitor	distractor	target	target	4537	s1	vx	22	target	2	8.42002127966396	1	1	simple	3	accessory
33	male	english	2.91275	[v2,v1,v2,s1]	s1	v1	s1	vx	s1_vx	s1_v1	s2_v2	simple_d	v2	male	2	1	3	3	distractor	competitor	target	target	1455	s2	v2	23	filler	2	7.28276117960559	1	2	unambiguous	3	species
33	male	english	2.91275	[v2,v1,v2,s1]	s1	v2	s1	vx	s1_v2	s1_vx	s2_v2	complex_c	s2	male	1	2	3	3	competitor	distractor	target	target	1014	s2	v2	24	filler	2	6.92165818415113	1	2	unambiguous	3	accessory
33	male	english	2.91275	[v2,v1,v2,s1]	s2	v2	sx	vx	s1_v1	s2_v2	sx_vx	unambig	s1	male	2	3	1	1	target	competitor	distractor	target	1468	s1	v1	25	filler	2	7.29165620917446	1	2	unambiguous	1	accessory
33	male	english	2.91275	[v2,v1,v2,s1]	s2	v1	s1	v2	s2_v1	s2_v1	s1_v2	ambig	v1	male	2	3	1	1	target	competitor	distractor	competitor	1101	s2	v1	26	filler	2	7.00397413672268	1	2	ambiguous	2	species
33	male	english	2.91275	[v2,v1,v2,s1]	s1	v1	sx	v1	sx_v1	s2_v2	s1_v1	simple_d	s2	male	3	1	2	2	distractor	target	competitor	target	952	s2	v2	27	filler	2	6.85856503479136	1	2	unambiguous	2	accessory
33	male	english	2.91275	[v2,v1,v2,s1]	sx	v1	s1	v2	sx_v1	s2_v1	s1_v2	simple_c	s2	male	1	3	2	2	competitor	target	distractor	target	862	s2	v1	28	filler	2	6.75925527066369	1	2	unambiguous	2	accessory
33	male	english	2.91275	[v2,v1,v2,s1]	s1	v2	sx	v2	s1_v2	s1_v1	sx_v2	complex_c	v1	male	1	3	2	2	competitor	target	distractor	target	1062	s1	v1	29	filler	2	6.96790920180188	1	2	unambiguous	2	species
33	male	english	2.91275	[v2,v1,v2,s1]	s1	v2	s2	vx	s1_v2	sx_v1	s2_vx	unambig	v1	male	1	3	2	2	competitor	target	distractor	target	976	sx	v1	30	filler	2	6.88346258641309	1	2	unambiguous	2	species
33	male	english	2.91275	[v2,v1,v2,s1]	s1	vx	s2	v1	s1_v2	s2_v1	s1_vx	simple_c	v2	male	3	2	1	1	target	distractor	competitor	target	1150	s1	v2	31	filler	2	7.0475172213573	1	2	unambiguous	1	species
33	male	english	2.91275	[v2,v1,v2,s1]	s2	v2	s2	vx	s1_v2	s2_v2	s2_vx	complex_c	s1	male	2	3	1	1	target	competitor	distractor	target	1369	s1	v2	32	filler	2	7.22183582528845	1	2	unambiguous	1	accessory
33	male	english	2.91275	[v2,v1,v2,s1]	s2	v1	s1	v2	s2_vx	s1_v2	s2_v1	simple	s2	male	3	2	1	1	target	distractor	competitor	competitor	1697	s2	vx	33	target	2	7.43661726523423	1	2	simple	3	accessory
33	male	english	2.91275	[v2,v1,v2,s1]	s1	vx	sx	v1	sx_v1	s1_vx	s2_v2	unambig	v2	male	2	1	3	3	distractor	competitor	target	target	963	s2	v2	34	filler	2	6.87005341179813	2	2	unambiguous	3	species
33	male	english	2.91275	[v2,v1,v2,s1]	s2	v2	s2	vx	s2_v2	s1_v2	s2_vx	complex_c	s1	male	1	3	2	2	competitor	target	distractor	target	1216	s1	v2	35	filler	2	7.10332206252611	2	2	unambiguous	2	accessory
33	male	english	2.91275	[v2,v1,v2,s1]	s1	v1	s2	v2	s2_v2	sx_v1	s1_v1	simple	v1	male	3	1	2	2	distractor	target	competitor	target	1002	sx	v1	36	target	2	6.90975328164481	2	2	simple	2	species
33	male	english	2.91275	[v2,v1,v2,s1]	sx	v1	s2	v2	s2_v2	sx_v1	s1_v1	simple_c	s1	male	2	1	3	3	distractor	competitor	target	target	1239	s1	v1	37	filler	2	7.12205988162914	2	2	unambiguous	3	accessory
33	male	english	2.91275	[v2,v1,v2,s1]	sx	v1	s1	v2	s1_v2	sx_v1	s2_v1	simple_c	s2	male	2	1	3	3	distractor	competitor	target	target	925	s2	v1	38	filler	2	6.82979373751242	2	2	unambiguous	3	accessory
33	male	english	2.91275	[v2,v1,v2,s1]	s2	vx	sx	v2	sx_v2	s2_vx	s1_v1	unambig	s1	male	2	1	3	3	distractor	competitor	target	target	1012	s1	v1	39	filler	2	6.91968384984741	2	2	unambiguous	3	accessory
33	male	english	2.91275	[v2,v1,v2,s1]	s1	v2	s2	vx	s2_v2	s1_v2	s2_vx	complex	v2	male	2	3	1	1	target	competitor	distractor	competitor	1177	s2	v2	40	target	2	7.07072410726028	2	2	complex	2	species
33	male	english	2.91275	[v2,v1,v2,s1]	s1	v2	sx	v1	s1_v1	s1_v2	sx_v1	complex	s1	male	2	3	1	1	target	competitor	distractor	competitor	1749	s1	v1	41	target	2	7.4667994750186	2	2	complex	2	accessory
33	male	english	2.91275	[v2,v1,v2,s1]	s2	v1	s1	v2	sx_v1	s1_v2	s2_v1	simple	v1	male	3	2	1	1	target	distractor	competitor	target	1378	sx	v1	42	target	2	7.2283884515736	2	2	simple	1	species
33	male	english	2.91275	[v2,v1,v2,s1]	s2	v1	s2	vx	s2_vx	s1_v1	s2_v1	complex_c	s1	male	3	1	2	2	distractor	target	competitor	target	952	s1	v1	43	filler	2	6.85856503479136	2	2	unambiguous	2	accessory
33	male	english	2.91275	[v2,v1,v2,s1]	s2	v1	sx	v2	sx_v2	s2_v1	s2_v2	complex	s2	male	2	1	3	3	distractor	competitor	target	competitor	1214	s2	v2	44	target	2	7.10167597161944	2	2	complex	2	accessory
33	male	english	2.91275	[v2,v1,v2,s1]	s2	v1	s2	vx	s1_v1	s2_vx	s2_v1	complex_c	s1	male	3	2	1	1	target	distractor	competitor	target	1635	s1	v1	45	filler	2	7.39939808333135	2	3	unambiguous	1	accessory
33	male	english	2.91275	[v2,v1,v2,s1]	s1	v2	s2	vx	s1_v2	s2_v2	s2_vx	complex	v2	male	1	3	2	2	competitor	target	distractor	target	1014	s2	v2	46	target	2	6.92165818415113	2	3	complex	2	species
33	male	english	2.91275	[v2,v1,v2,s1]	s1	v1	s2	v2	s2_v2	s1_vx	s1_v1	simple	s1	male	3	1	2	2	distractor	target	competitor	competitor	2154	s1	vx	47	target	2	7.67508185771633	2	3	simple	3	accessory
33	male	english	2.91275	[v2,v1,v2,s1]	s1	v1	s2	v2	sx_v1	s1_v1	s2_v2	simple	v1	male	2	3	1	1	target	competitor	distractor	target	1571	sx	v1	48	target	2	7.35946763825562	2	3	simple	1	species
33	male	english	2.91275	[v2,v1,v2,s1]	s1	v1	s2	v2	s1_vx	s1_v1	s2_v2	simple	s1	male	2	3	1	1	target	competitor	distractor	competitor	1354	s1	vx	49	target	2	7.21081845347222	2	3	simple	2	accessory
33	male	english	2.91275	[v2,v1,v2,s1]	s2	v2	s1	v1	s2_v2	sx_v2	s1_v1	simple	v2	male	1	3	2	2	competitor	target	distractor	target	1063	sx	v2	50	target	2	6.96885037834195	2	3	simple	2	species
33	male	english	2.91275	[v2,v1,v2,s1]	s1	v1	sx	v2	sx_v2	s1_v2	s1_v1	complex	s1	male	3	1	2	2	distractor	target	competitor	target	1446	s1	v2	51	target	2	7.27655640271871	2	3	complex	2	accessory
33	male	english	2.91275	[v2,v1,v2,s1]	s1	vx	s2	v1	s1_vx	s2_v1	s1_v2	simple_c	v2	male	1	2	3	3	competitor	distractor	target	target	1407	s1	v2	52	filler	2	7.24921505711439	2	3	unambiguous	3	species
33	male	english	2.91275	[v2,v1,v2,s1]	s1	v2	s2	v1	s1_vx	s2_v1	s1_v2	simple	s1	male	3	2	1	1	target	distractor	competitor	competitor	1015	s1	vx	53	target	2	6.92264389147589	2	3	simple	3	accessory
33	male	english	2.91275	[v2,v1,v2,s1]	s1	vx	s2	v2	sx_v1	s1_vx	s2_v2	unambig	v1	male	2	3	1	1	target	competitor	distractor	target	1239	sx	v1	54	filler	2	7.12205988162914	2	3	unambiguous	1	species
33	male	english	2.91275	[v2,v1,v2,s1]	s1	v1	s2	vx	s1_v1	s2_vx	s2_v1	complex	v1	male	1	2	3	3	competitor	distractor	target	competitor	1826	s2	v1	55	target	2	7.50988306115491	2	3	complex	1	species
33	male	english	2.91275	[v2,v1,v2,s1]	s1	v2	sx	v1	s1_v2	sx_v1	s1_v1	complex	s1	male	1	2	3	3	competitor	distractor	target	competitor	2519	s1	v1	56	target	2	7.83161727635261	2	3	complex	1	accessory
33	male	english	2.91275	[v2,v1,v2,s1]	s1	v2	s2	vx	s1_v2	s2_v2	s2_vx	complex	v2	male	1	3	2	2	competitor	target	distractor	target	1471	s2	v2	57	target	2	7.29369772060144	2	3	complex	2	species
33	male	english	2.91275	[v2,v1,v2,s1]	s2	v2	s1	vx	s1_v2	s1_vx	s2_v2	complex	v2	male	3	2	1	1	target	distractor	competitor	competitor	2342	s1	v2	58	target	2	7.75876054415766	2	3	complex	3	species
33	male	english	2.91275	[v2,v1,v2,s1]	s1	v1	sx	v1	s1_v1	s1_v2	sx_v1	complex_c	v2	male	1	3	2	2	competitor	target	distractor	target	1254	s1	v2	59	filler	2	7.13409372119287	2	3	unambiguous	2	species
33	male	english	2.91275	[v2,v1,v2,s1]	sx	v1	s2	v2	sx_v1	s1_v1	s2_v2	simple_c	s1	male	1	3	2	2	competitor	target	distractor	target	1102	s1	v1	60	filler	2	7.00488198971286	2	3	unambiguous	2	accessory
33	male	english	2.91275	[v2,v1,v2,s1]	s2	v2	sx	v2	s2_v2	sx_v2	s1_v1	simple_d	v1	male	1	2	3	3	competitor	distractor	target	target	1419	s1	v1	61	filler	2	7.25770767716004	2	3	unambiguous	3	species
33	male	english	2.91275	[v2,v1,v2,s1]	s2	vx	sx	v1	s1_v2	sx_v1	s2_vx	unambig	v2	male	3	2	1	1	target	distractor	competitor	target	1345	s1	v2	62	filler	2	7.20414929203594	2	3	unambiguous	1	species
33	male	english	2.91275	[v2,v1,v2,s1]	s1	v1	s2	v2	sx_v1	s2_v2	s1_v1	simple	v1	male	3	2	1	1	target	distractor	competitor	target	1671	sx	v1	63	target	2	7.42117752859539	2	3	simple	1	species
33	male	english	2.91275	[v2,v1,v2,s1]	s2	v1	sx	v1	sx_v1	s1_v2	s2_v1	simple_d	s1	male	3	1	2	2	distractor	target	competitor	target	1118	s1	v2	64	filler	2	7.01929665371504	2	3	unambiguous	2	accessory
33	male	english	2.91275	[v2,v1,v2,s1]	s1	v1	sx	v2	sx_v2	s2_vx	s1_v1	unambig	s2	male	3	1	2	2	distractor	target	competitor	target	1062	s2	vx	65	filler	2	6.96790920180188	2	3	unambiguous	2	accessory
46	f	English	3.43456666666667	[v2,v1,v2,s1]	s1	v1	sx	vx	s2_v2	sx_vx	s1_v1	unambig	v2	female	3	2	1	1	target	distractor	competitor	target	4321	s2	v2	0	filler	3	8.37124213593193	1	1	unambiguous	1	species
46	f	English	3.43456666666667	[v2,v1,v2,s1]	s2	v2	s1	v1	s2_v2	s1_v1	s2_vx	simple	s2	female	1	2	3	3	competitor	distractor	target	target	5557	s2	vx	1	target	3	8.62281367327992	1	1	simple	3	accessory
46	f	English	3.43456666666667	[v2,v1,v2,s1]	s2	v2	sx	v2	sx_v2	s2_v1	s2_v2	complex_c	v1	female	3	1	2	2	distractor	target	competitor	target	1790	s2	v1	2	filler	3	7.4899708988348	1	1	unambiguous	2	species
46	f	English	3.43456666666667	[v2,v1,v2,s1]	s1	v2	sx	v2	s1_v2	s1_v1	sx_v2	complex_c	v1	female	1	3	2	2	competitor	target	distractor	target	1620	s1	v1	3	filler	3	7.39018142822643	1	1	unambiguous	2	species
46	f	English	3.43456666666667	[v2,v1,v2,s1]	s2	vx	s1	v1	s1_v1	s2_vx	s2_v2	simple_c	v2	female	2	1	3	3	distractor	competitor	target	target	1622	s2	v2	4	filler	3	7.39141523467536	1	1	unambiguous	3	species
46	f	English	3.43456666666667	[v2,v1,v2,s1]	s1	vx	s2	v2	s2_v2	s1_v1	s1_vx	simple_c	v1	female	3	1	2	2	distractor	target	competitor	target	1543	s1	v1	5	filler	3	7.34148385236316	1	1	unambiguous	2	species
46	f	English	3.43456666666667	[v2,v1,v2,s1]	s1	v1	s1	vx	s2_v2	s1_vx	s1_v1	simple_d	s2	female	3	2	1	1	target	distractor	competitor	target	1728	s2	v2	6	filler	3	7.454719949364	1	1	unambiguous	1	accessory
46	f	English	3.43456666666667	[v2,v1,v2,s1]	s1	v1	sx	v2	s1_v1	sx_v2	s1_v1	ambig	s1	female	3	2	1	1	target	distractor	competitor	target	3388	s1	v1	7	filler	3	8.12799505577195	1	1	ambiguous	1	accessory
46	f	English	3.43456666666667	[v2,v1,v2,s1]	s2	v2	sx	v2	s2_v2	sx_v2	s2_v1	complex_c	v1	female	1	2	3	3	competitor	distractor	target	target	2572	s2	v1	8	filler	3	7.85243908535751	1	1	unambiguous	3	species
46	f	English	3.43456666666667	[v2,v1,v2,s1]	s1	v1	sx	v2	s1_v2	s1_v1	sx_v2	complex	s1	female	2	3	1	1	target	competitor	distractor	target	2724	s1	v2	9	target	3	7.9098566672694	1	1	complex	1	accessory
46	f	English	3.43456666666667	[v2,v1,v2,s1]	s2	v1	sx	v2	sx_v2	s2_v1	s2_v2	complex	s2	female	2	1	3	3	distractor	competitor	target	target	6560	s2	v2	10	target	3	8.78874588193814	1	1	complex	3	accessory
46	f	English	3.43456666666667	[v2,v1,v2,s1]	s1	v2	s1	vx	s1_v2	s2_v1	s1_vx	simple_d	v1	female	1	3	2	2	competitor	target	distractor	target	1916	s2	v1	11	filler	3	7.55799495853081	1	1	unambiguous	2	species
46	f	English	3.43456666666667	[v2,v1,v2,s1]	s2	v1	sx	v1	s2_v2	s2_v1	sx_v1	complex_c	v2	female	2	3	1	1	target	competitor	distractor	target	2669	s2	v2	12	filler	3	7.88945914940452	1	1	unambiguous	1	species
46	f	English	3.43456666666667	[v2,v1,v2,s1]	s2	v1	sx	v1	s2_v2	sx_v1	s2_v1	complex_c	v2	female	3	2	1	1	target	distractor	competitor	target	1797	s2	v2	13	filler	3	7.49387388678356	1	1	unambiguous	1	species
46	f	English	3.43456666666667	[v2,v1,v2,s1]	s1	v1	s1	vx	s2_v1	s1_v1	s1_vx	complex_c	s2	female	2	3	1	1	target	competitor	distractor	target	2008	s2	v1	14	filler	3	7.60489448081162	1	1	unambiguous	1	accessory
46	f	English	3.43456666666667	[v2,v1,v2,s1]	s2	vx	s1	v1	s2_v2	s1_v1	s2_vx	simple_c	v2	female	3	2	1	1	target	distractor	competitor	target	1258	s2	v2	15	filler	3	7.13727843726039	1	1	unambiguous	1	species
46	f	English	3.43456666666667	[v2,v1,v2,s1]	s1	v2	s2	v1	s1_v2	s1_v2	s2_v1	ambig	v2	female	1	3	2	2	competitor	target	distractor	competitor	2777	s1	v2	16	filler	3	7.9291264873068	1	1	ambiguous	1	species
46	f	English	3.43456666666667	[v2,v1,v2,s1]	s1	v2	s2	v1	s2_v1	s1_vx	s1_v2	simple	s1	female	3	1	2	2	distractor	target	competitor	target	4901	s1	vx	17	target	3	8.49719454490955	1	1	simple	2	accessory
46	f	English	3.43456666666667	[v2,v1,v2,s1]	s2	v2	s1	v1	s2_vx	s2_v2	s1_v1	simple	s2	female	2	3	1	1	target	competitor	distractor	target	3674	s2	vx	18	target	3	8.20903626577507	1	1	simple	1	accessory
46	f	English	3.43456666666667	[v2,v1,v2,s1]	s1	v1	sx	v2	sx_v2	s1_v1	s1_v2	complex	s1	female	2	1	3	3	distractor	competitor	target	target	3558	s1	v2	19	target	3	8.17695386822578	1	1	complex	3	accessory
46	f	English	3.43456666666667	[v2,v1,v2,s1]	s1	v1	s2	vx	s1_v1	s2_vx	sx_v2	unambig	v2	female	1	2	3	3	competitor	distractor	target	target	1513	sx	v2	20	filler	3	7.32184971378836	1	1	unambiguous	3	species
46	f	English	3.43456666666667	[v2,v1,v2,s1]	sx	v2	s1	v1	s1_v1	s2_v2	sx_v2	simple_c	s2	female	3	1	2	2	distractor	target	competitor	target	1327	s2	v2	21	filler	3	7.19067603433221	1	1	unambiguous	2	accessory
46	f	English	3.43456666666667	[v2,v1,v2,s1]	s1	v1	s1	vx	s1_v1	s1_vx	s2_v1	complex_c	s2	female	1	2	3	3	competitor	distractor	target	target	1450	s2	v1	22	filler	3	7.27931883541462	1	1	unambiguous	3	accessory
46	f	English	3.43456666666667	[v2,v1,v2,s1]	s1	v1	s2	v2	s2_v2	s1_v1	s1_vx	simple	s1	female	2	1	3	3	distractor	competitor	target	target	2972	s1	vx	23	target	3	7.99699040583765	1	2	simple	3	accessory
46	f	English	3.43456666666667	[v2,v1,v2,s1]	s1	v2	sx	v2	s1_v1	s1_v2	sx_v2	complex_c	v1	female	2	3	1	1	target	competitor	distractor	target	1374	s1	v1	24	filler	3	7.22548147278229	1	2	unambiguous	1	species
46	f	English	3.43456666666667	[v2,v1,v2,s1]	s2	vx	s1	v1	s2_vx	s2_v2	s1_v1	simple_c	v2	female	1	3	2	2	competitor	target	distractor	target	1228	s2	v2	25	filler	3	7.11314210870709	1	2	unambiguous	2	species
46	f	English	3.43456666666667	[v2,v1,v2,s1]	s1	v2	s2	vx	s1_v2	sx_v1	s2_vx	unambig	v1	female	1	3	2	2	competitor	target	distractor	target	1128	sx	v1	26	filler	3	7.028201432058	1	2	unambiguous	2	species
46	f	English	3.43456666666667	[v2,v1,v2,s1]	s1	v2	s2	v1	s1_v2	s2_v1	s1_vx	simple	s1	female	1	2	3	3	competitor	distractor	target	target	2786	s1	vx	27	target	3	7.93236215433975	1	2	simple	3	accessory
46	f	English	3.43456666666667	[v2,v1,v2,s1]	s1	v1	s2	v2	s1_v1	sx_v1	s2_v2	simple	v1	female	1	3	2	2	competitor	target	distractor	target	3812	sx	v1	28	target	3	8.24590926477409	1	2	simple	2	species
46	f	English	3.43456666666667	[v2,v1,v2,s1]	s1	v2	s2	vx	s2_vx	s1_v2	sx_v1	unambig	v1	female	2	1	3	3	distractor	competitor	target	target	1860	sx	v1	29	filler	3	7.52833176670725	1	2	unambiguous	3	species
46	f	English	3.43456666666667	[v2,v1,v2,s1]	s2	v1	s1	vx	s1_v1	s1_vx	s2_v1	complex	v1	female	3	2	1	1	target	distractor	competitor	competitor	2356	s1	v1	30	target	3	7.76472054477148	1	2	complex	3	species
46	f	English	3.43456666666667	[v2,v1,v2,s1]	s2	v2	s1	v1	s1_v1	s2_v2	sx_v2	simple	v2	female	2	1	3	3	distractor	competitor	target	target	2550	sx	v2	31	target	3	7.84384863815247	1	2	simple	3	species
46	f	English	3.43456666666667	[v2,v1,v2,s1]	s2	v1	s1	vx	s2_v1	s1_v1	s1_vx	complex	v1	female	1	3	2	2	competitor	target	distractor	target	1446	s1	v1	32	target	3	7.27655640271871	1	2	complex	2	species
46	f	English	3.43456666666667	[v2,v1,v2,s1]	s2	v1	s2	vx	s2_v1	s1_v1	s2_vx	complex_c	s1	female	1	3	2	2	competitor	target	distractor	target	1265	s1	v1	33	filler	3	7.14282740116162	1	2	unambiguous	2	accessory
46	f	English	3.43456666666667	[v2,v1,v2,s1]	s2	vx	sx	v2	s2_vx	sx_v2	s1_v1	unambig	v1	female	1	2	3	3	competitor	distractor	target	target	1213	s1	v1	34	filler	3	7.10085190894405	2	2	unambiguous	3	species
46	f	English	3.43456666666667	[v2,v1,v2,s1]	s1	v1	sx	vx	s2_v2	s1_v1	sx_vx	unambig	v2	female	2	3	1	1	target	competitor	distractor	target	1235	s2	v2	35	filler	3	7.11882624906208	2	2	unambiguous	1	species
46	f	English	3.43456666666667	[v2,v1,v2,s1]	s2	v2	s1	v1	s1_v1	s2_vx	s2_v2	simple	s2	female	3	1	2	2	distractor	target	competitor	competitor	3665	s2	vx	36	target	3	8.20658361432075	2	2	simple	3	accessory
46	f	English	3.43456666666667	[v2,v1,v2,s1]	s1	v2	sx	v2	sx_v2	s1_v1	s1_v2	complex_c	v1	female	3	1	2	2	distractor	target	competitor	target	1197	s1	v1	37	filler	3	7.08757370555797	2	2	unambiguous	2	species
46	f	English	3.43456666666667	[v2,v1,v2,s1]	s2	v2	sx	v1	s2_v2	s2_v1	sx_v1	complex	s2	female	1	3	2	2	competitor	target	distractor	target	2061	s2	v1	38	target	3	7.63094658089046	2	2	complex	2	accessory
46	f	English	3.43456666666667	[v2,v1,v2,s1]	s1	v1	sx	v2	s1_v1	s1_v2	sx_v2	complex	s1	female	1	3	2	2	competitor	target	distractor	target	2300	s1	v2	39	target	3	7.74066440191724	2	2	complex	2	accessory
46	f	English	3.43456666666667	[v2,v1,v2,s1]	s2	vx	sx	v2	s2_vx	s1_v1	sx_v2	unambig	s1	female	1	3	2	2	competitor	target	distractor	target	2499	s1	v1	40	filler	3	7.82364593083495	2	2	unambiguous	2	accessory
46	f	English	3.43456666666667	[v2,v1,v2,s1]	s1	v2	sx	vx	sx_vx	s2_v1	s1_v2	unambig	s2	female	3	1	2	2	distractor	target	competitor	target	1730	s2	v1	41	filler	3	7.45587668749182	2	2	unambiguous	2	accessory
46	f	English	3.43456666666667	[v2,v1,v2,s1]	s2	v2	s1	v1	s2_v2	s1_v1	s2_v2	ambig	s2	female	3	2	1	1	target	distractor	competitor	competitor	2387	s2	v2	42	filler	3	7.77779262633883	2	2	ambiguous	3	accessory
46	f	English	3.43456666666667	[v2,v1,v2,s1]	sx	v1	s2	v2	s1_v1	sx_v1	s2_v2	simple_c	s1	female	2	3	1	1	target	competitor	distractor	target	2199	s1	v1	43	filler	3	7.69575799055476	2	2	unambiguous	1	accessory
46	f	English	3.43456666666667	[v2,v1,v2,s1]	s2	v1	sx	v2	s2_v2	sx_v2	s2_v1	complex	s2	female	3	2	1	1	target	distractor	competitor	target	1660	s2	v2	44	target	3	7.41457288135059	2	2	complex	1	accessory
46	f	English	3.43456666666667	[v2,v1,v2,s1]	s2	v2	sx	v1	s2_v2	s2_v2	sx_v1	ambig	v2	female	2	3	1	1	target	competitor	distractor	target	2044	s2	v2	45	filler	3	7.6226639513236	2	3	ambiguous	1	species
46	f	English	3.43456666666667	[v2,v1,v2,s1]	s1	v1	s2	vx	s2_v1	s1_v1	s2_vx	complex	v1	female	2	3	1	1	target	competitor	distractor	competitor	2200	s2	v1	46	target	3	7.69621263934641	2	3	complex	2	species
46	f	English	3.43456666666667	[v2,v1,v2,s1]	s2	v1	s1	vx	s1_vx	s1_v1	s2_v1	complex	v1	female	3	1	2	2	distractor	target	competitor	competitor	4106	s1	v1	47	target	3	8.32020459757888	2	3	complex	3	species
46	f	English	3.43456666666667	[v2,v1,v2,s1]	s2	v2	sx	v2	sx_v2	s1_v1	s2_v2	simple_d	v1	female	3	1	2	2	distractor	target	competitor	target	2656	s1	v1	48	filler	3	7.88457651059632	2	3	unambiguous	2	species
46	f	English	3.43456666666667	[v2,v1,v2,s1]	s1	v1	s1	vx	s1_vx	s1_v1	s2_v1	complex_c	s2	female	2	1	3	3	distractor	competitor	target	target	1026	s2	v1	49	filler	3	6.93342302573071	2	3	unambiguous	3	accessory
46	f	English	3.43456666666667	[v2,v1,v2,s1]	s1	v1	sx	v2	s2_vx	sx_v2	s1_v1	unambig	s2	female	3	2	1	1	target	distractor	competitor	target	1166	s2	vx	50	filler	3	7.06133436691044	2	3	unambiguous	1	accessory
46	f	English	3.43456666666667	[v2,v1,v2,s1]	s1	v2	s2	v1	sx_v2	s2_v1	s1_v2	simple	v2	female	3	2	1	1	target	distractor	competitor	target	1104	sx	v2	51	target	3	7.00669522683704	2	3	simple	1	species
46	f	English	3.43456666666667	[v2,v1,v2,s1]	s1	v2	s1	vx	s2_v1	s1_vx	s1_v2	simple_d	v1	female	3	2	1	1	target	distractor	competitor	target	1064	s2	v1	52	filler	3	6.96979066990159	2	3	unambiguous	1	species
46	f	English	3.43456666666667	[v2,v1,v2,s1]	s2	v2	s1	v1	sx_v2	s1_v1	s2_v2	simple	v2	female	3	2	1	1	target	distractor	competitor	target	2964	sx	v2	53	target	3	7.99429498641598	2	3	simple	1	species
46	f	English	3.43456666666667	[v2,v1,v2,s1]	s2	v2	s1	v1	s2_v2	s2_v2	s1_v1	ambig	v2	female	1	3	2	2	competitor	target	distractor	competitor	1143	s2	v2	54	filler	3	7.04141166379481	2	3	ambiguous	1	species
46	f	English	3.43456666666667	[v2,v1,v2,s1]	s2	v2	sx	v2	s2_v2	sx_v2	s1_v1	simple_d	v1	female	1	2	3	3	competitor	distractor	target	target	1657	s1	v1	55	filler	3	7.41276401742656	2	3	unambiguous	3	species
46	f	English	3.43456666666667	[v2,v1,v2,s1]	s1	v2	sx	v1	s1_v1	sx_v1	s1_v2	complex	s1	female	3	2	1	1	target	distractor	competitor	competitor	1845	s1	v1	56	target	3	7.52023455647463	2	3	complex	3	accessory
46	f	English	3.43456666666667	[v2,v1,v2,s1]	s1	v1	s2	v2	s2_v2	s1_vx	s1_v1	simple	s1	female	3	1	2	2	distractor	target	competitor	competitor	1652	s1	vx	57	target	3	7.40974195408092	2	3	simple	3	accessory
46	f	English	3.43456666666667	[v2,v1,v2,s1]	s1	v1	sx	v1	s1_v1	sx_v1	s1_v2	complex_c	v2	female	1	2	3	3	competitor	distractor	target	target	1234	s1	v2	58	filler	3	7.11801620446533	2	3	unambiguous	3	species
46	f	English	3.43456666666667	[v2,v1,v2,s1]	s2	v1	s1	v2	s2_v1	s2_v1	s1_v2	ambig	v1	female	2	3	1	1	target	competitor	distractor	competitor	1598	s2	v1	59	filler	3	7.37650812632622	2	3	ambiguous	2	species
46	f	English	3.43456666666667	[v2,v1,v2,s1]	s2	v2	s1	v1	s2_v2	sx_v2	s1_v1	simple	v2	female	1	3	2	2	competitor	target	distractor	target	1452	sx	v2	60	target	3	7.28069719538474	2	3	simple	2	species
46	f	English	3.43456666666667	[v2,v1,v2,s1]	s1	v1	sx	v2	sx_v2	s1_v1	s1_v1	ambig	v1	female	2	1	3	3	distractor	competitor	target	competitor	1018	s1	v1	61	filler	3	6.92559519711047	2	3	ambiguous	2	species
46	f	English	3.43456666666667	[v2,v1,v2,s1]	s1	v2	sx	v2	sx_v2	s2_v1	s1_v2	simple_d	v1	female	3	1	2	2	distractor	target	competitor	target	1190	s2	v1	62	filler	3	7.08170858610557	2	3	unambiguous	2	species
46	f	English	3.43456666666667	[v2,v1,v2,s1]	s1	v2	sx	v1	s1_v2	s1_v2	sx_v1	ambig	s1	female	2	3	1	1	target	competitor	distractor	competitor	1341	s1	v2	63	filler	3	7.20117088328168	2	3	ambiguous	2	accessory
46	f	English	3.43456666666667	[v2,v1,v2,s1]	s1	v2	s2	v1	s2_v1	s1_v2	s1_v2	ambig	v2	female	2	1	3	3	distractor	competitor	target	competitor	2726	s1	v2	64	filler	3	7.91059061225648	2	3	ambiguous	2	species
46	f	English	3.43456666666667	[v2,v1,v2,s1]	s2	v2	sx	v1	s2_v2	sx_v1	s2_v1	complex	s2	female	1	2	3	3	competitor	distractor	target	target	2777	s2	v1	65	target	3	7.9291264873068	2	3	complex	3	accessory
31	male	english	2.6949	[v2,v1,v2,s1]	s1	v1	s1	vx	s1_vx	s1_v1	s2_v1	complex_c	s2	male	2	1	3	3	distractor	competitor	target	target	8631	s2	v1	0	filler	4	9.06311565221966	1	1	unambiguous	3	accessory
31	male	english	2.6949	[v2,v1,v2,s1]	s1	v1	sx	v2	s1_v1	s2_vx	sx_v2	unambig	s2	male	1	3	2	2	competitor	target	distractor	target	1735	s2	vx	1	filler	4	7.45876269238096	1	1	unambiguous	2	accessory
31	male	english	2.6949	[v2,v1,v2,s1]	s2	v2	sx	v2	s2_v1	s2_v2	sx_v2	complex_c	v1	male	2	3	1	1	target	competitor	distractor	target	1281	s2	v1	2	filler	4	7.15539630189673	1	1	unambiguous	1	species
31	male	english	2.6949	[v2,v1,v2,s1]	s2	v1	s1	v2	s2_vx	s2_v1	s1_v2	simple	s2	male	2	3	1	1	target	competitor	distractor	target	2836	s2	vx	3	target	4	7.95014988765202	1	1	simple	1	accessory
31	male	english	2.6949	[v2,v1,v2,s1]	s1	v1	sx	v2	sx_v2	s1_v1	s1_v1	ambig	s1	male	2	1	3	3	distractor	competitor	target	competitor	1902	s1	v1	4	filler	4	7.55066124310534	1	1	ambiguous	2	accessory
31	male	english	2.6949	[v2,v1,v2,s1]	s2	v2	s2	vx	s1_v2	s2_v2	s2_vx	complex_c	s1	male	2	3	1	1	target	competitor	distractor	target	1645	s1	v2	5	filler	4	7.40549566319947	1	1	unambiguous	1	accessory
31	male	english	2.6949	[v2,v1,v2,s1]	s2	v2	s1	v1	s2_vx	s1_v1	s2_v2	simple	s2	male	3	2	1	1	target	distractor	competitor	target	1617	s2	vx	6	target	4	7.38832785957711	1	1	simple	1	accessory
31	male	english	2.6949	[v2,v1,v2,s1]	s1	vx	s2	v1	s2_v1	s1_vx	s1_v2	simple_c	v2	male	2	1	3	3	distractor	competitor	target	target	1423	s1	v2	7	filler	4	7.26052259808985	1	1	unambiguous	3	species
31	male	english	2.6949	[v2,v1,v2,s1]	s2	v1	s2	vx	s1_v1	s2_v1	s2_vx	complex_c	s1	male	2	3	1	1	target	competitor	distractor	target	1360	s1	v1	8	filler	4	7.2152399787301	1	1	unambiguous	1	accessory
31	male	english	2.6949	[v2,v1,v2,s1]	s2	v1	sx	v1	s2_v1	s2_v2	sx_v1	complex_c	v2	male	1	3	2	2	competitor	target	distractor	target	1034	s2	v2	9	filler	4	6.94119005506837	1	1	unambiguous	2	species
31	male	english	2.6949	[v2,v1,v2,s1]	s1	v2	s2	v1	s2_v1	sx_v2	s1_v2	simple	v2	male	3	1	2	2	distractor	target	competitor	competitor	1845	sx	v2	10	target	4	7.52023455647463	1	1	simple	3	species
31	male	english	2.6949	[v2,v1,v2,s1]	s1	v2	s2	vx	s2_vx	s1_v2	s2_v2	complex	v2	male	2	1	3	3	distractor	competitor	target	target	1972	s2	v2	11	target	4	7.58680353516258	1	1	complex	3	species
31	male	english	2.6949	[v2,v1,v2,s1]	s2	v2	sx	v1	s2_v1	sx_v1	s2_v2	complex	s2	male	3	2	1	1	target	distractor	competitor	competitor	2804	s2	v1	12	target	4	7.93880224815448	1	1	complex	3	accessory
31	male	english	2.6949	[v2,v1,v2,s1]	s1	v1	sx	v1	s1_v1	s1_v2	sx_v1	complex_c	v2	male	1	3	2	2	competitor	target	distractor	target	1200	s1	v2	13	filler	4	7.09007683577609	1	1	unambiguous	2	species
31	male	english	2.6949	[v2,v1,v2,s1]	s2	v2	s2	vx	s1_v2	s2_vx	s2_v2	complex_c	s1	male	3	2	1	1	target	distractor	competitor	target	1060	s1	v2	14	filler	4	6.96602418710611	1	1	unambiguous	1	accessory
31	male	english	2.6949	[v2,v1,v2,s1]	s2	v2	s2	vx	s2_vx	s1_v2	s2_v2	complex_c	s1	male	3	1	2	2	distractor	target	competitor	target	1014	s1	v2	15	filler	4	6.92165818415113	1	1	unambiguous	2	accessory
31	male	english	2.6949	[v2,v1,v2,s1]	s1	v1	s2	vx	s1_v1	s2_v1	s2_vx	complex	v1	male	1	3	2	2	competitor	target	distractor	competitor	1232	s2	v1	16	target	4	7.11639414409346	1	1	complex	1	species
31	male	english	2.6949	[v2,v1,v2,s1]	s1	v2	s1	vx	s1_v2	s2_v1	s1_vx	simple_d	v1	male	1	3	2	2	competitor	target	distractor	target	1234	s2	v1	17	filler	4	7.11801620446533	1	1	unambiguous	2	species
31	male	english	2.6949	[v2,v1,v2,s1]	s2	v1	s1	v2	s2_vx	s2_v1	s1_v2	simple	s2	male	2	3	1	1	target	competitor	distractor	competitor	1312	s2	vx	18	target	4	7.17930796950403	1	1	simple	2	accessory
31	male	english	2.6949	[v2,v1,v2,s1]	s2	v1	s1	v2	sx_v1	s2_v1	s1_v2	simple	v1	male	2	3	1	1	target	competitor	distractor	competitor	1154	sx	v1	19	target	4	7.05098944706805	1	1	simple	2	species
31	male	english	2.6949	[v2,v1,v2,s1]	s2	v1	sx	v1	s2_v1	sx_v1	s2_v2	complex_c	v2	male	1	2	3	3	competitor	distractor	target	target	1438	s2	v2	20	filler	4	7.27100853828099	1	1	unambiguous	3	species
31	male	english	2.6949	[v2,v1,v2,s1]	s1	v1	s2	vx	s1_v1	s2_v1	s2_vx	complex	v1	male	1	3	2	2	competitor	target	distractor	target	1726	s2	v1	21	target	4	7.45356187164337	1	1	complex	2	species
31	male	english	2.6949	[v2,v1,v2,s1]	sx	v1	s1	v2	sx_v1	s1_v2	s2_v1	simple_c	s2	male	1	2	3	3	competitor	distractor	target	target	1164	s2	v1	22	filler	4	7.05961762829138	1	1	unambiguous	3	accessory
31	male	english	2.6949	[v2,v1,v2,s1]	s2	v1	s2	vx	s2_vx	s2_v1	s1_v2	simple_d	v2	male	2	1	3	3	distractor	competitor	target	target	1004	s1	v2	23	filler	4	6.91174730025167	1	2	unambiguous	3	species
31	male	english	2.6949	[v2,v1,v2,s1]	s1	v2	sx	v1	s1_v2	sx_v1	s1_v2	ambig	s1	male	1	2	3	3	competitor	distractor	target	target	1602	s1	v2	24	filler	4	7.3790081276283	1	2	ambiguous	3	accessory
31	male	english	2.6949	[v2,v1,v2,s1]	s2	v1	sx	v2	s2_v1	s2_v2	sx_v2	complex	s2	male	1	3	2	2	competitor	target	distractor	target	2204	s2	v2	25	target	4	7.6980291702728	1	2	complex	2	accessory
31	male	english	2.6949	[v2,v1,v2,s1]	s2	v1	s1	v2	s1_v2	s2_v1	s2_v1	ambig	v1	male	2	1	3	3	distractor	competitor	target	competitor	1220	s2	v1	26	filler	4	7.1066061377273	1	2	ambiguous	2	species
31	male	english	2.6949	[v2,v1,v2,s1]	s2	v1	sx	v2	sx_v2	s2_v1	s1_vx	unambig	s1	male	2	1	3	3	distractor	competitor	target	target	1225	s1	vx	27	filler	4	7.11069612297883	1	2	unambiguous	3	accessory
31	male	english	2.6949	[v2,v1,v2,s1]	s1	v2	s2	v1	s1_v2	s2_v1	s1_vx	simple	s1	male	1	2	3	3	competitor	distractor	target	target	1170	s1	vx	28	target	4	7.0647590277918	1	2	simple	3	accessory
31	male	english	2.6949	[v2,v1,v2,s1]	s2	v1	s2	vx	s1_v1	s2_v1	s2_vx	complex_c	s1	male	2	3	1	1	target	competitor	distractor	target	1303	s1	v1	29	filler	4	7.17242457712485	1	2	unambiguous	1	accessory
31	male	english	2.6949	[v2,v1,v2,s1]	s1	v2	sx	v1	s1_v2	sx_v1	s1_v2	ambig	s1	male	1	2	3	3	competitor	distractor	target	target	1118	s1	v2	30	filler	4	7.01929665371504	1	2	ambiguous	3	accessory
31	male	english	2.6949	[v2,v1,v2,s1]	s2	v2	sx	v1	s2_v1	s2_v2	sx_v1	complex	s2	male	2	3	1	1	target	competitor	distractor	competitor	1111	s2	v1	31	target	4	7.01301578963963	1	2	complex	2	accessory
31	male	english	2.6949	[v2,v1,v2,s1]	s2	v1	s1	v2	s2_v1	s1_v2	sx_v1	simple	v1	male	1	2	3	3	competitor	distractor	target	target	2732	sx	v1	32	target	4	7.91278922069068	1	2	simple	3	species
31	male	english	2.6949	[v2,v1,v2,s1]	s2	v2	sx	v2	s2_v1	s2_v2	sx_v2	complex_c	v1	male	2	3	1	1	target	competitor	distractor	target	1650	s2	v1	33	filler	4	7.40853056689463	1	2	unambiguous	1	species
31	male	english	2.6949	[v2,v1,v2,s1]	s2	v1	sx	v2	s2_v1	s2_v2	sx_v2	complex	s2	male	1	3	2	2	competitor	target	distractor	target	1382	s2	v2	34	target	4	7.23128700432762	2	2	complex	2	accessory
31	male	english	2.6949	[v2,v1,v2,s1]	s1	v2	s2	vx	s1_v2	s2_v2	s2_vx	complex	v2	male	1	3	2	2	competitor	target	distractor	competitor	1561	s2	v2	35	target	4	7.35308192051543	2	2	complex	1	species
31	male	english	2.6949	[v2,v1,v2,s1]	s1	v1	sx	v2	sx_v2	s1_v1	s2_vx	unambig	s2	male	2	1	3	3	distractor	competitor	target	target	1187	s2	vx	36	filler	4	7.07918439460967	2	2	unambiguous	3	accessory
31	male	english	2.6949	[v2,v1,v2,s1]	s2	vx	s1	v2	s1_v2	s2_v1	s2_vx	simple_c	v1	male	3	1	2	2	distractor	target	competitor	target	1011	s2	v1	37	filler	4	6.91869521902047	2	2	unambiguous	2	species
31	male	english	2.6949	[v2,v1,v2,s1]	s2	v1	sx	v2	s2_v1	sx_v2	s2_v1	ambig	s2	male	1	2	3	3	competitor	distractor	target	competitor	1038	s2	v1	38	filler	4	6.94505106372583	2	2	ambiguous	1	accessory
31	male	english	2.6949	[v2,v1,v2,s1]	s2	v2	sx	v1	s1_vx	s2_v2	sx_v1	unambig	s1	male	2	3	1	1	target	competitor	distractor	target	1122	s1	vx	39	filler	4	7.02286808608264	2	2	unambiguous	1	accessory
31	male	english	2.6949	[v2,v1,v2,s1]	s2	v2	s2	vx	s2_v2	s1_v1	s2_vx	simple_d	v1	male	1	3	2	2	competitor	target	distractor	target	918	s1	v1	40	filler	4	6.82219739062049	2	2	unambiguous	2	species
31	male	english	2.6949	[v2,v1,v2,s1]	s1	v2	sx	v2	s1_v2	s1_v1	sx_v2	complex_c	v1	male	1	3	2	2	competitor	target	distractor	target	864	s1	v1	41	filler	4	6.76157276880406	2	2	unambiguous	2	species
31	male	english	2.6949	[v2,v1,v2,s1]	s1	v1	sx	v2	sx_v2	s2_vx	s1_v1	unambig	s2	male	3	1	2	2	distractor	target	competitor	target	826	s2	vx	42	filler	4	6.71659477352098	2	2	unambiguous	2	accessory
31	male	english	2.6949	[v2,v1,v2,s1]	sx	v2	s2	v1	s2_v1	sx_v2	s1_v2	simple_c	s1	male	2	1	3	3	distractor	competitor	target	target	1036	s1	v2	43	filler	4	6.94312242281943	2	2	unambiguous	3	accessory
31	male	english	2.6949	[v2,v1,v2,s1]	s1	v1	sx	v2	s1_v1	sx_v2	s1_v1	ambig	s1	male	3	2	1	1	target	distractor	competitor	target	926	s1	v1	44	filler	4	6.83087423464618	2	2	ambiguous	1	accessory
31	male	english	2.6949	[v2,v1,v2,s1]	s1	v1	s2	v2	s2_v2	s1_v1	s1_v1	ambig	s1	male	3	1	2	2	distractor	target	competitor	target	834	s1	v1	45	filler	4	6.72623340235875	2	3	ambiguous	2	accessory
31	male	english	2.6949	[v2,v1,v2,s1]	s1	v2	sx	v1	s1_v1	s1_v2	sx_v1	complex	s1	male	2	3	1	1	target	competitor	distractor	competitor	800	s1	v1	46	target	4	6.68461172766793	2	3	complex	2	accessory
31	male	english	2.6949	[v2,v1,v2,s1]	s1	v2	s2	vx	s1_v2	s2_vx	s2_v2	complex	v2	male	1	2	3	3	competitor	distractor	target	target	1084	s2	v2	47	target	4	6.98841318199959	2	3	complex	3	species
31	male	english	2.6949	[v2,v1,v2,s1]	s2	v2	s2	vx	s2_vx	s1_v1	s2_v2	simple_d	s1	male	3	1	2	2	distractor	target	competitor	target	871	s1	v1	48	filler	4	6.7696419768525	2	3	unambiguous	2	accessory
31	male	english	2.6949	[v2,v1,v2,s1]	s2	v2	sx	vx	s2_v2	sx_vx	s1_v1	unambig	v1	male	1	2	3	3	competitor	distractor	target	target	934	s1	v1	49	filler	4	6.83947643822884	2	3	unambiguous	3	species
31	male	english	2.6949	[v2,v1,v2,s1]	s1	v2	sx	vx	s2_v1	sx_vx	s1_v2	unambig	v1	male	3	2	1	1	target	distractor	competitor	target	2018	s2	v1	50	filler	4	7.60986220091355	2	3	unambiguous	1	species
31	male	english	2.6949	[v2,v1,v2,s1]	sx	v1	s1	v2	sx_v1	s2_v1	s1_v2	simple_c	s2	male	1	3	2	2	competitor	target	distractor	target	1108	s2	v1	51	filler	4	7.01031186730723	2	3	unambiguous	2	accessory
31	male	english	2.6949	[v2,v1,v2,s1]	s1	v1	sx	v2	s1_v2	s1_v1	sx_v2	complex	s1	male	2	3	1	1	target	competitor	distractor	competitor	824	s1	v2	52	target	4	6.71417052990947	2	3	complex	2	accessory
31	male	english	2.6949	[v2,v1,v2,s1]	s1	v2	s2	v1	s2_v1	s1_vx	s1_v2	simple	s1	male	3	1	2	2	distractor	target	competitor	target	794	s1	vx	53	target	4	6.67708346124714	2	3	simple	2	accessory
31	male	english	2.6949	[v2,v1,v2,s1]	s2	v1	s1	v2	s2_v1	s1_v2	s2_v1	ambig	s2	male	3	2	1	1	target	distractor	competitor	competitor	974	s2	v1	54	filler	4	6.88141130364254	2	3	ambiguous	3	accessory
31	male	english	2.6949	[v2,v1,v2,s1]	s2	v1	sx	v1	sx_v1	s2_v1	s1_v2	simple_d	s1	male	2	1	3	3	distractor	competitor	target	target	808	s1	v2	55	filler	4	6.69456205852109	2	3	unambiguous	3	accessory
31	male	english	2.6949	[v2,v1,v2,s1]	s2	v1	s1	vx	s1_vx	s1_v1	s2_v1	complex	v1	male	3	1	2	2	distractor	target	competitor	target	934	s1	v1	56	target	4	6.83947643822884	2	3	complex	2	species
31	male	english	2.6949	[v2,v1,v2,s1]	s2	v2	s1	v1	s2_v2	s1_v1	s2_vx	simple	s2	male	1	2	3	3	competitor	distractor	target	target	966	s2	vx	57	target	4	6.87316383421252	2	3	simple	3	accessory
31	male	english	2.6949	[v2,v1,v2,s1]	s2	v1	s2	vx	s2_vx	s2_v1	s1_v2	simple_d	v2	male	2	1	3	3	distractor	competitor	target	target	979	s1	v2	58	filler	4	6.88653164253051	2	3	unambiguous	3	species
31	male	english	2.6949	[v2,v1,v2,s1]	s2	v2	sx	v1	s2_v2	s2_v2	sx_v1	ambig	v2	male	2	3	1	1	target	competitor	distractor	competitor	860	s2	v2	59	filler	4	6.75693238924755	2	3	ambiguous	2	species
31	male	english	2.6949	[v2,v1,v2,s1]	sx	v1	s1	v2	s2_v1	s1_v2	sx_v1	simple_c	s2	male	3	2	1	1	target	distractor	competitor	target	1280	s2	v1	60	filler	4	7.15461535691366	2	3	unambiguous	1	accessory
31	male	english	2.6949	[v2,v1,v2,s1]	s1	v2	sx	vx	s1_v2	sx_vx	s2_v1	unambig	s2	male	1	2	3	3	competitor	distractor	target	target	1097	s2	v1	61	filler	4	7.00033446027523	2	3	unambiguous	3	accessory
31	male	english	2.6949	[v2,v1,v2,s1]	s2	v1	s1	v2	sx_v1	s2_v1	s1_v2	simple	v1	male	2	3	1	1	target	competitor	distractor	competitor	1029	sx	v1	62	target	4	6.93634273583405	2	3	simple	2	species
31	male	english	2.6949	[v2,v1,v2,s1]	s2	vx	sx	v2	s1_v1	sx_v2	s2_vx	unambig	v1	male	3	2	1	1	target	distractor	competitor	target	1132	s1	v1	63	filler	4	7.03174125876313	2	3	unambiguous	1	species
31	male	english	2.6949	[v2,v1,v2,s1]	s2	v1	s1	v2	s1_v2	s2_v1	s2_vx	simple	s2	male	2	1	3	3	distractor	competitor	target	competitor	841	s2	vx	64	target	4	6.73459165997295	2	3	simple	2	accessory
31	male	english	2.6949	[v2,v1,v2,s1]	s2	v1	s1	v2	sx_v1	s1_v2	s2_v1	simple	v1	male	3	2	1	1	target	distractor	competitor	competitor	866	sx	v1	65	target	4	6.76388490856244	2	3	simple	3	species
24	Male	English	2.81386666666667	[v2,v1,v2,v2]	s1	v1	sx	vx	sx_vx	s2_v2	s1_v1	unambig	v2	male	3	1	2	2	distractor	target	competitor	target	16199	s2	v2	0	filler	5	9.69270479092014	1	1	unambiguous	2	species
24	Male	English	2.81386666666667	[v2,v1,v2,v2]	s1	v1	sx	v2	sx_v2	s1_v1	s1_v2	complex	s1	male	2	1	3	3	distractor	competitor	target	competitor	6186	s1	v2	1	target	5	8.73004395324502	1	1	complex	2	accessory
24	Male	English	2.81386666666667	[v2,v1,v2,v2]	s1	v1	s2	v2	s1_v1	s1_vx	s2_v2	simple	s1	male	1	3	2	2	competitor	target	distractor	competitor	2547	s1	vx	2	target	5	7.84267147497946	1	1	simple	1	accessory
24	Male	English	2.81386666666667	[v2,v1,v2,v2]	s1	v2	s2	v1	sx_v2	s2_v1	s1_v2	simple	v2	male	3	2	1	1	target	distractor	competitor	competitor	1770	sx	v2	3	target	5	7.47873482556787	1	1	simple	3	species
24	Male	English	2.81386666666667	[v2,v1,v2,v2]	s1	v1	s2	v2	s2_v2	s1_v1	s1_v1	ambig	v1	male	2	1	3	3	distractor	competitor	target	target	5135	s1	v1	4	filler	5	8.54383512236266	1	1	ambiguous	3	species
24	Male	English	2.81386666666667	[v2,v1,v2,v2]	s1	v1	sx	v1	sx_v1	s2_v2	s1_v1	simple_d	v2	male	3	1	2	2	distractor	target	competitor	target	1232	s2	v2	5	filler	5	7.11639414409346	1	1	unambiguous	2	species
24	Male	English	2.81386666666667	[v2,v1,v2,v2]	s1	vx	s2	v2	s1_v1	s1_vx	s2_v2	simple_c	v1	male	2	3	1	1	target	competitor	distractor	target	2002	s1	v1	6	filler	5	7.60190195987517	1	1	unambiguous	1	species
24	Male	English	2.81386666666667	[v2,v1,v2,v2]	s2	vx	s1	v1	s2_v2	s1_v1	s2_vx	simple_c	v2	male	3	2	1	1	target	distractor	competitor	target	1362	s2	v2	7	filler	5	7.21670948670946	1	1	unambiguous	1	species
24	Male	English	2.81386666666667	[v2,v1,v2,v2]	s2	v2	s1	v1	s2_vx	s2_v2	s1_v1	simple	s2	male	2	3	1	1	target	competitor	distractor	target	2361	s2	vx	8	target	5	7.76684053708551	1	1	simple	1	accessory
24	Male	English	2.81386666666667	[v2,v1,v2,v2]	s1	v1	sx	v1	s1_v2	s1_v1	sx_v1	complex_c	v2	male	2	3	1	1	target	competitor	distractor	target	1217	s1	v2	9	filler	5	7.10414409298753	1	1	unambiguous	1	species
24	Male	English	2.81386666666667	[v2,v1,v2,v2]	s1	v2	s2	v1	s1_vx	s2_v1	s1_v2	simple	s1	male	3	2	1	1	target	distractor	competitor	target	1344	s1	vx	10	target	5	7.20340552108309	1	1	simple	1	accessory
24	Male	English	2.81386666666667	[v2,v1,v2,v2]	s1	v2	sx	vx	sx_vx	s2_v1	s1_v2	unambig	s2	male	3	1	2	2	distractor	target	competitor	target	1068	s2	v1	11	filler	5	6.97354301952014	1	1	unambiguous	2	accessory
24	Male	English	2.81386666666667	[v2,v1,v2,v2]	s1	v1	s2	v2	sx_v1	s2_v2	s1_v1	simple	v1	male	3	2	1	1	target	distractor	competitor	target	1377	sx	v1	12	target	5	7.22766249872865	1	1	simple	1	species
24	Male	English	2.81386666666667	[v2,v1,v2,v2]	s1	v1	s1	vx	s2_v1	s1_v1	s1_vx	complex_c	s2	male	2	3	1	1	target	competitor	distractor	target	852	s2	v1	13	filler	5	6.74758652682932	1	1	unambiguous	1	accessory
24	Male	English	2.81386666666667	[v2,v1,v2,v2]	s2	v1	sx	v2	sx_v2	s2_v2	s2_v1	complex	s2	male	3	1	2	2	distractor	target	competitor	competitor	1779	s2	v2	14	target	5	7.48380668766583	1	1	complex	3	accessory
24	Male	English	2.81386666666667	[v2,v1,v2,v2]	s1	v1	sx	vx	sx_vx	s2_v2	s1_v1	unambig	v2	male	3	1	2	2	distractor	target	competitor	target	1242	s2	v2	15	filler	5	7.12447826249342	1	1	unambiguous	2	species
24	Male	English	2.81386666666667	[v2,v1,v2,v2]	s1	v2	sx	v1	s2_vx	sx_v1	s1_v2	unambig	s2	male	3	2	1	1	target	distractor	competitor	target	896	s2	vx	16	filler	5	6.79794041297493	1	1	unambiguous	1	accessory
24	Male	English	2.81386666666667	[v2,v1,v2,v2]	s1	v1	sx	v2	s1_v2	s1_v1	sx_v2	complex	s1	male	2	3	1	1	target	competitor	distractor	competitor	1553	s1	v2	17	target	5	7.34794382314869	1	1	complex	2	accessory
24	Male	English	2.81386666666667	[v2,v1,v2,v2]	s2	v1	s1	vx	s2_v1	s1_v1	s1_vx	complex	v1	male	1	3	2	2	competitor	target	distractor	competitor	1301	s1	v1	18	target	5	7.1708884785125	1	1	complex	1	species
24	Male	English	2.81386666666667	[v2,v1,v2,v2]	s1	v2	s1	vx	s2_v1	s1_v2	s1_vx	simple_d	s2	male	2	3	1	1	target	competitor	distractor	target	1389	s2	v1	19	filler	5	7.23633934275434	1	1	unambiguous	1	accessory
24	Male	English	2.81386666666667	[v2,v1,v2,v2]	s2	v2	s1	vx	s1_vx	s2_v2	s1_v2	complex	v2	male	2	1	3	3	distractor	competitor	target	target	4291	s1	v2	20	target	5	8.36427508499152	1	1	complex	3	species
24	Male	English	2.81386666666667	[v2,v1,v2,v2]	s1	v2	sx	vx	s2_v1	s1_v2	sx_vx	unambig	s2	male	2	3	1	1	target	competitor	distractor	target	2159	s2	v1	21	filler	5	7.67740043051481	1	1	unambiguous	1	accessory
24	Male	English	2.81386666666667	[v2,v1,v2,v2]	s2	v1	s1	v2	s2_v1	s2_v1	s1_v2	ambig	s2	male	1	3	2	2	competitor	target	distractor	target	1747	s2	v1	22	filler	5	7.46565531013406	1	1	ambiguous	2	accessory
24	Male	English	2.81386666666667	[v2,v1,v2,v2]	s2	v2	s2	vx	s2_vx	s2_v2	s1_v1	simple_d	v1	male	2	1	3	3	distractor	competitor	target	target	1445	s1	v1	23	filler	5	7.27586460054653	1	2	unambiguous	3	species
24	Male	English	2.81386666666667	[v2,v1,v2,v2]	s1	vx	s2	v1	s1_vx	s2_v1	s1_v2	simple_c	v2	male	1	2	3	3	competitor	distractor	target	target	1727	s1	v2	24	filler	5	7.45414107814668	1	2	unambiguous	3	species
24	Male	English	2.81386666666667	[v2,v1,v2,v2]	s1	v2	sx	v1	s1_v1	sx_v1	s1_v2	complex	s1	male	3	2	1	1	target	distractor	competitor	target	1511	s1	v1	25	target	5	7.32052696227274	1	2	complex	1	accessory
24	Male	English	2.81386666666667	[v2,v1,v2,v2]	s2	v2	sx	vx	sx_vx	s2_v2	s1_v1	unambig	s1	male	2	1	3	3	distractor	competitor	target	target	1334	s1	v1	26	filler	5	7.19593722647557	1	2	unambiguous	3	accessory
24	Male	English	2.81386666666667	[v2,v1,v2,v2]	s1	vx	s2	v2	s1_vx	s2_v2	sx_v1	unambig	v1	male	1	2	3	3	competitor	distractor	target	target	1272	sx	v1	27	filler	5	7.14834574390007	1	2	unambiguous	3	species
24	Male	English	2.81386666666667	[v2,v1,v2,v2]	s2	v1	s2	vx	s2_vx	s2_v1	s1_v1	complex_c	s1	male	2	1	3	3	distractor	competitor	target	target	916	s1	v1	28	filler	5	6.82001636467413	1	2	unambiguous	3	accessory
24	Male	English	2.81386666666667	[v2,v1,v2,v2]	s2	v1	sx	v1	s1_v2	sx_v1	s2_v1	simple_d	s1	male	3	2	1	1	target	distractor	competitor	target	5213	s1	v2	29	filler	5	8.55891078476811	1	2	unambiguous	1	accessory
24	Male	English	2.81386666666667	[v2,v1,v2,v2]	s1	v1	sx	v1	s1_v1	sx_v1	s1_v2	complex_c	v2	male	1	2	3	3	competitor	distractor	target	target	980	s1	v2	30	filler	5	6.88755257166462	1	2	unambiguous	3	species
24	Male	English	2.81386666666667	[v2,v1,v2,v2]	s1	v2	s1	vx	s1_vx	s2_v2	s1_v2	complex_c	s2	male	3	1	2	2	distractor	target	competitor	target	1311	s2	v2	31	filler	5	7.1785454837637	1	2	unambiguous	2	accessory
24	Male	English	2.81386666666667	[v2,v1,v2,v2]	s2	v2	sx	v1	s2_v2	s2_v2	sx_v1	ambig	v2	male	2	3	1	1	target	competitor	distractor	target	1568	s2	v2	32	filler	5	7.35755620091035	1	2	ambiguous	1	species
24	Male	English	2.81386666666667	[v2,v1,v2,v2]	s1	vx	s2	v1	s1_vx	s2_v1	s1_v2	simple_c	v2	male	1	2	3	3	competitor	distractor	target	target	933	s1	v2	33	filler	5	6.83840520084734	1	2	unambiguous	3	species
24	Male	English	2.81386666666667	[v2,v1,v2,v2]	s2	v1	sx	v2	sx_v2	s2_v1	s2_v1	ambig	s2	male	2	1	3	3	distractor	competitor	target	competitor	1095	s2	v1	34	filler	5	6.9985096422506	2	2	ambiguous	2	accessory
24	Male	English	2.81386666666667	[v2,v1,v2,v2]	s1	v1	s2	v2	sx_v1	s1_v1	s2_v2	simple	v1	male	2	3	1	1	target	competitor	distractor	target	1508	sx	v1	35	target	5	7.3185395485679	2	2	simple	1	species
24	Male	English	2.81386666666667	[v2,v1,v2,v2]	s1	v2	sx	v1	s1_v2	s1_v1	sx_v1	complex	s1	male	1	3	2	2	competitor	target	distractor	target	1030	s1	v1	36	target	5	6.93731408122368	2	2	complex	2	accessory
24	Male	English	2.81386666666667	[v2,v1,v2,v2]	s2	v2	sx	v2	sx_v2	s2_v2	s2_v1	complex_c	v1	male	2	1	3	3	distractor	competitor	target	target	1110	s2	v1	37	filler	5	7.01211529430638	2	2	unambiguous	3	species
24	Male	English	2.81386666666667	[v2,v1,v2,v2]	s1	v2	s2	v1	s1_vx	s2_v1	s1_v2	simple	s1	male	3	2	1	1	target	distractor	competitor	target	1536	s1	vx	38	target	5	7.33693691370762	2	2	simple	1	accessory
24	Male	English	2.81386666666667	[v2,v1,v2,v2]	s2	v2	s1	v1	s2_v2	s2_v2	s1_v1	ambig	s2	male	2	3	1	1	target	competitor	distractor	competitor	2687	s2	v2	39	filler	5	7.89618060861549	2	2	ambiguous	2	accessory
24	Male	English	2.81386666666667	[v2,v1,v2,v2]	s1	v2	sx	v2	sx_v2	s1_v1	s1_v2	complex_c	v1	male	3	1	2	2	distractor	target	competitor	target	1276	s1	v1	40	filler	5	7.15148546390474	2	2	unambiguous	2	species
24	Male	English	2.81386666666667	[v2,v1,v2,v2]	s1	v2	sx	v2	s1_v2	s1_v1	sx_v2	complex_c	v1	male	1	3	2	2	competitor	target	distractor	target	745	s1	v1	41	filler	5	6.61338421837956	2	2	unambiguous	2	species
24	Male	English	2.81386666666667	[v2,v1,v2,v2]	s1	v2	sx	v1	s1_v2	s1_v1	sx_v1	complex	s1	male	1	3	2	2	competitor	target	distractor	target	1971	s1	v1	42	target	5	7.58629630715272	2	2	complex	2	accessory
24	Male	English	2.81386666666667	[v2,v1,v2,v2]	sx	v2	s2	v1	sx_v2	s2_v1	s1_v2	simple_c	s1	male	1	2	3	3	competitor	distractor	target	target	1559	s1	v2	43	filler	5	7.35179986905778	2	2	unambiguous	3	accessory
24	Male	English	2.81386666666667	[v2,v1,v2,v2]	s2	v2	s1	v1	s2_v2	s1_v1	s2_vx	simple	s2	male	1	2	3	3	competitor	distractor	target	competitor	1640	s2	vx	44	target	5	7.40245152081824	2	2	simple	1	accessory
24	Male	English	2.81386666666667	[v2,v1,v2,v2]	s2	v2	sx	v1	sx_v1	s2_v2	s2_v2	ambig	s2	male	3	1	2	2	distractor	target	competitor	target	2359	s2	v2	45	filler	5	7.76599307940768	2	3	ambiguous	2	accessory
24	Male	English	2.81386666666667	[v2,v1,v2,v2]	s2	v2	sx	v2	sx_v2	s2_v2	s2_v1	complex_c	v1	male	2	1	3	3	distractor	competitor	target	target	1780	s2	v1	46	filler	5	7.48436864328613	2	3	unambiguous	3	species
24	Male	English	2.81386666666667	[v2,v1,v2,v2]	s1	v1	s1	vx	s1_vx	s1_v1	s2_v1	complex_c	s2	male	2	1	3	3	distractor	competitor	target	target	1146	s2	v1	47	filler	5	7.04403289727469	2	3	unambiguous	3	accessory
24	Male	English	2.81386666666667	[v2,v1,v2,v2]	s1	v2	s2	v1	sx_v2	s1_v2	s2_v1	simple	v2	male	2	3	1	1	target	competitor	distractor	competitor	1688	sx	v2	48	target	5	7.4312996751559	2	3	simple	2	species
24	Male	English	2.81386666666667	[v2,v1,v2,v2]	s2	v1	s1	v2	s1_v2	sx_v1	s2_v1	simple	v1	male	3	1	2	2	distractor	target	competitor	target	1077	sx	v1	49	target	5	6.98193467715639	2	3	simple	2	species
24	Male	English	2.81386666666667	[v2,v1,v2,v2]	s1	v2	s2	v1	s2_v1	s1_v2	s1_vx	simple	s1	male	2	1	3	3	distractor	competitor	target	target	1337	s1	vx	50	target	5	7.19818357710194	2	3	simple	3	accessory
24	Male	English	2.81386666666667	[v2,v1,v2,v2]	s1	v2	s2	v1	s2_v1	s1_v2	s1_v2	ambig	v2	male	2	1	3	3	distractor	competitor	target	target	1053	s1	v2	51	filler	5	6.95939851213398	2	3	ambiguous	3	species
24	Male	English	2.81386666666667	[v2,v1,v2,v2]	s1	v1	s2	vx	s2_vx	s2_v1	s1_v1	complex	v1	male	3	1	2	2	distractor	target	competitor	target	1086	s2	v1	52	target	5	6.99025650049388	2	3	complex	2	species
24	Male	English	2.81386666666667	[v2,v1,v2,v2]	s2	v1	s1	v2	s2_v1	s2_v1	s1_v2	ambig	v1	male	2	3	1	1	target	competitor	distractor	target	1795	s2	v1	53	filler	5	7.49276030092238	2	3	ambiguous	1	species
24	Male	English	2.81386666666667	[v2,v1,v2,v2]	s2	v1	sx	v2	sx_v2	s2_v2	s2_v1	complex	s2	male	3	1	2	2	distractor	target	competitor	competitor	2434	s2	v2	54	target	5	7.79729127354747	2	3	complex	3	accessory
24	Male	English	2.81386666666667	[v2,v1,v2,v2]	s1	vx	s2	v2	s2_v2	s1_v1	s1_vx	simple_c	v1	male	3	1	2	2	distractor	target	competitor	target	1009	s1	v1	55	filler	5	6.91671502035361	2	3	unambiguous	2	species
24	Male	English	2.81386666666667	[v2,v1,v2,v2]	s2	v2	s1	vx	s1_v2	s2_v2	s1_vx	complex	v2	male	2	3	1	1	target	competitor	distractor	target	1613	s1	v2	56	target	5	7.38585107812521	2	3	complex	1	species
24	Male	English	2.81386666666667	[v2,v1,v2,v2]	s1	v2	s2	v1	s2_v1	s1_v2	s1_v2	ambig	v2	male	2	1	3	3	distractor	competitor	target	target	1047	s1	v2	57	filler	5	6.95368421087054	2	3	ambiguous	3	species
24	Male	English	2.81386666666667	[v2,v1,v2,v2]	s1	vx	sx	v2	sx_v2	s2_v1	s1_vx	unambig	v1	male	3	1	2	2	distractor	target	competitor	target	903	s2	v1	58	filler	5	6.80572255341699	2	3	unambiguous	2	species
24	Male	English	2.81386666666667	[v2,v1,v2,v2]	s1	v1	sx	v1	s1_v2	s1_v1	sx_v1	complex_c	v2	male	2	3	1	1	target	competitor	distractor	target	827	s1	v2	59	filler	5	6.71780469502369	2	3	unambiguous	1	species
24	Male	English	2.81386666666667	[v2,v1,v2,v2]	s2	vx	sx	v1	sx_v1	s1_v2	s2_vx	unambig	s1	male	3	1	2	2	distractor	target	competitor	target	1544	s1	v2	60	filler	5	7.34213173058472	2	3	unambiguous	2	accessory
24	Male	English	2.81386666666667	[v2,v1,v2,v2]	s1	v2	sx	v2	sx_v2	s1_v2	s2_v1	simple_d	s2	male	2	1	3	3	distractor	competitor	target	target	939	s2	v1	61	filler	5	6.84481547920826	2	3	unambiguous	3	accessory
24	Male	English	2.81386666666667	[v2,v1,v2,v2]	s1	v1	s2	v2	s2_v2	s1_v1	s1_vx	simple	s1	male	2	1	3	3	distractor	competitor	target	competitor	1594	s1	vx	62	target	5	7.37400185935016	2	3	simple	2	accessory
24	Male	English	2.81386666666667	[v2,v1,v2,v2]	s2	v1	s1	vx	s1_vx	s1_v1	s2_v1	complex	v1	male	3	1	2	2	distractor	target	competitor	target	1078	s1	v1	63	target	5	6.98286275146894	2	3	complex	2	species
24	Male	English	2.81386666666667	[v2,v1,v2,v2]	s1	v1	sx	v1	sx_v1	s1_v1	s2_v2	simple_d	v2	male	2	1	3	3	distractor	competitor	target	target	919	s2	v2	64	filler	5	6.82328612235569	2	3	unambiguous	3	species
24	Male	English	2.81386666666667	[v2,v1,v2,v2]	s1	v2	s1	vx	s1_v2	s2_v2	s1_vx	complex_c	s2	male	1	3	2	2	competitor	target	distractor	target	1180	s2	v2	65	filler	5	7.07326971745971	2	3	unambiguous	2	accessory
27	Male	English	2.3031	[v2,v1,v2,s1]	s2	v1	sx	v2	s2_v1	sx_v2	s1_vx	unambig	s1	male	1	2	3	3	competitor	distractor	target	target	1658	s1	vx	0	filler	6	7.41336733569524	1	1	unambiguous	3	accessory
27	Male	English	2.3031	[v2,v1,v2,s1]	s2	v1	s2	vx	s2_vx	s2_v1	s1_v1	complex_c	s1	male	2	1	3	3	distractor	competitor	target	target	2038	s1	v1	1	filler	6	7.61972421378267	1	1	unambiguous	3	accessory
27	Male	English	2.3031	[v2,v1,v2,s1]	s2	v2	sx	v1	sx_v1	s2_v2	s2_v2	ambig	s2	male	2	1	3	3	distractor	competitor	target	competitor	3138	s2	v2	2	filler	6	8.05134093329298	1	1	ambiguous	2	accessory
27	Male	English	2.3031	[v2,v1,v2,s1]	s2	v2	sx	v1	sx_v1	s2_v2	s2_v1	complex	s2	male	2	1	3	3	distractor	competitor	target	target	2032	s2	v1	3	target	6	7.61677580869837	1	1	complex	3	accessory
27	Male	English	2.3031	[v2,v1,v2,s1]	s1	v2	sx	v1	s2_vx	s1_v2	sx_v1	unambig	s2	male	2	3	1	1	target	competitor	distractor	target	1659	s2	vx	4	filler	6	7.41397029019044	1	1	unambiguous	1	accessory
27	Male	English	2.3031	[v2,v1,v2,s1]	s1	v2	sx	v1	s1_v2	sx_v1	s1_v2	ambig	v2	male	1	2	3	3	competitor	distractor	target	competitor	2395	s1	v2	5	filler	6	7.78113850984502	1	1	ambiguous	1	species
27	Male	English	2.3031	[v2,v1,v2,s1]	s2	v1	s1	v2	s2_vx	s2_v1	s1_v2	simple	s2	male	2	3	1	1	target	competitor	distractor	competitor	2147	s2	vx	6	target	6	7.67182679787878	1	1	simple	2	accessory
27	Male	English	2.3031	[v2,v1,v2,s1]	s2	v1	s1	v2	s2_v1	sx_v1	s1_v2	simple	v1	male	1	3	2	2	competitor	target	distractor	competitor	2718	sx	v1	7	target	6	7.90765159471109	1	1	simple	1	species
27	Male	English	2.3031	[v2,v1,v2,s1]	s1	v2	sx	v1	s1_v1	s1_v2	sx_v1	complex	s1	male	2	3	1	1	target	competitor	distractor	target	1822	s1	v1	8	target	6	7.5076900778199	1	1	complex	1	accessory
27	Male	English	2.3031	[v2,v1,v2,s1]	s2	v1	s1	v2	s2_v1	s1_v2	sx_v1	simple	v1	male	1	2	3	3	competitor	distractor	target	target	2034	sx	v1	9	target	6	7.61775957660851	1	1	simple	3	species
27	Male	English	2.3031	[v2,v1,v2,s1]	s2	v1	s1	v2	s1_v2	s2_vx	s2_v1	simple	s2	male	3	1	2	2	distractor	target	competitor	competitor	1365	s2	vx	10	target	6	7.21890970761906	1	1	simple	3	accessory
27	Male	English	2.3031	[v2,v1,v2,s1]	s1	vx	s2	v2	s2_v2	s1_vx	s1_v1	simple_c	v1	male	2	1	3	3	distractor	competitor	target	target	1352	s1	v1	11	filler	6	7.20934025660291	1	1	unambiguous	3	species
27	Male	English	2.3031	[v2,v1,v2,s1]	s2	v2	sx	v1	sx_v1	s2_v2	s2_v2	ambig	s2	male	2	1	3	3	distractor	competitor	target	target	1863	s2	v2	12	filler	6	7.52994337060159	1	1	ambiguous	3	accessory
27	Male	English	2.3031	[v2,v1,v2,s1]	sx	v2	s2	v1	sx_v2	s1_v2	s2_v1	simple_c	s1	male	1	3	2	2	competitor	target	distractor	target	2032	s1	v2	13	filler	6	7.61677580869837	1	1	unambiguous	2	accessory
27	Male	English	2.3031	[v2,v1,v2,s1]	s1	v2	s2	v1	s1_v2	s1_v2	s2_v1	ambig	v2	male	2	3	1	1	target	competitor	distractor	target	1265	s1	v2	14	filler	6	7.14282740116162	1	1	ambiguous	1	species
27	Male	English	2.3031	[v2,v1,v2,s1]	s1	v2	s2	v1	sx_v2	s1_v2	s2_v1	simple	v2	male	2	3	1	1	target	competitor	distractor	target	2128	sx	v2	15	target	6	7.66293785046154	1	1	simple	1	species
27	Male	English	2.3031	[v2,v1,v2,s1]	s2	v2	s2	vx	s2_v2	s1_v2	s2_vx	complex_c	s1	male	1	3	2	2	competitor	target	distractor	target	1056	s1	v2	16	filler	6	6.96224346426621	1	1	unambiguous	2	accessory
27	Male	English	2.3031	[v2,v1,v2,s1]	s2	v2	sx	v2	sx_v2	s1_v1	s2_v2	simple_d	v1	male	3	1	2	2	distractor	target	competitor	target	881	s1	v1	17	filler	6	6.78105762593618	1	1	unambiguous	2	species
27	Male	English	2.3031	[v2,v1,v2,s1]	s2	v1	s2	vx	s2_v1	s2_vx	s1_v1	complex_c	s1	male	1	2	3	3	competitor	distractor	target	target	1424	s1	v1	18	filler	6	7.26122509197192	1	1	unambiguous	3	accessory
27	Male	English	2.3031	[v2,v1,v2,s1]	s2	v1	s2	vx	s2_vx	s2_v1	s1_v2	simple_d	s1	male	2	1	3	3	distractor	competitor	target	target	1184	s1	v2	19	filler	6	7.07665381544395	1	1	unambiguous	3	accessory
27	Male	English	2.3031	[v2,v1,v2,s1]	s2	v1	s1	v2	s2_v1	s2_vx	s1_v2	simple	s2	male	1	3	2	2	competitor	target	distractor	target	1120	s2	vx	20	target	6	7.02108396428914	1	1	simple	2	accessory
27	Male	English	2.3031	[v2,v1,v2,s1]	s1	v2	sx	v1	sx_v1	s1_v2	s1_v1	complex	s1	male	2	1	3	3	distractor	competitor	target	target	967	s1	v1	21	target	6	6.87419849545329	1	1	complex	3	accessory
27	Male	English	2.3031	[v2,v1,v2,s1]	s1	vx	sx	v1	s1_vx	s2_v2	sx_v1	unambig	v2	male	1	3	2	2	competitor	target	distractor	target	1056	s2	v2	22	filler	6	6.96224346426621	1	1	unambiguous	2	species
27	Male	English	2.3031	[v2,v1,v2,s1]	sx	v1	s1	v2	s2_v1	s1_v2	sx_v1	simple_c	s2	male	3	2	1	1	target	distractor	competitor	target	1063	s2	v1	23	filler	6	6.96885037834195	1	2	unambiguous	1	accessory
27	Male	English	2.3031	[v2,v1,v2,s1]	sx	v1	s1	v2	s2_v1	sx_v1	s1_v2	simple_c	s2	male	2	3	1	1	target	competitor	distractor	target	906	s2	v1	24	filler	6	6.80903930604298	1	2	unambiguous	1	accessory
27	Male	English	2.3031	[v2,v1,v2,s1]	s1	v2	s2	v1	s2_v1	s1_v2	s1_v2	ambig	v2	male	2	1	3	3	distractor	competitor	target	competitor	1215	s1	v2	25	filler	6	7.10249935577465	1	2	ambiguous	2	species
27	Male	English	2.3031	[v2,v1,v2,s1]	s2	v2	s1	v1	s1_v1	s2_v2	s2_v2	ambig	v2	male	2	1	3	3	distractor	competitor	target	competitor	1760	s2	v2	26	filler	6	7.4730690880322	1	2	ambiguous	2	species
27	Male	English	2.3031	[v2,v1,v2,s1]	s2	v1	sx	v2	s2_v1	s2_v1	sx_v2	ambig	v1	male	2	3	1	1	target	competitor	distractor	competitor	1478	s2	v1	27	filler	6	7.29844510150815	1	2	ambiguous	2	species
27	Male	English	2.3031	[v2,v1,v2,s1]	s2	v1	sx	v2	s2_v2	s2_v1	sx_v2	complex	s2	male	2	3	1	1	target	competitor	distractor	competitor	1511	s2	v2	28	target	6	7.32052696227274	1	2	complex	2	accessory
27	Male	English	2.3031	[v2,v1,v2,s1]	s1	v1	sx	v1	sx_v1	s1_v2	s1_v1	complex_c	v2	male	3	1	2	2	distractor	target	competitor	target	1103	s1	v2	29	filler	6	7.0057890192535	1	2	unambiguous	2	species
27	Male	English	2.3031	[v2,v1,v2,s1]	sx	v1	s1	v2	s2_v1	sx_v1	s1_v2	simple_c	s2	male	2	3	1	1	target	competitor	distractor	target	978	s2	v1	30	filler	6	6.88550967003482	1	2	unambiguous	1	accessory
27	Male	English	2.3031	[v2,v1,v2,s1]	s1	v2	s2	vx	sx_v1	s2_vx	s1_v2	unambig	v1	male	3	2	1	1	target	distractor	competitor	target	936	sx	v1	31	filler	6	6.84161547647759	1	2	unambiguous	1	species
27	Male	English	2.3031	[v2,v1,v2,s1]	s1	v1	s2	vx	s1_v1	s2_vx	sx_v2	unambig	v2	male	1	2	3	3	competitor	distractor	target	target	1120	sx	v2	32	filler	6	7.02108396428914	1	2	unambiguous	3	species
27	Male	English	2.3031	[v2,v1,v2,s1]	s2	v1	s2	vx	s1_v2	s2_vx	s2_v1	simple_d	v2	male	3	2	1	1	target	distractor	competitor	target	1152	s1	v2	33	filler	6	7.04925484125584	1	2	unambiguous	1	species
27	Male	English	2.3031	[v2,v1,v2,s1]	s2	v1	s1	vx	s2_v1	s1_v1	s1_vx	complex	v1	male	1	3	2	2	competitor	target	distractor	target	1496	s1	v1	34	target	6	7.31055015853442	2	2	complex	2	species
27	Male	English	2.3031	[v2,v1,v2,s1]	s1	v2	s2	v1	s1_v2	s2_v1	s1_vx	simple	s1	male	1	2	3	3	competitor	distractor	target	target	1313	s1	vx	35	target	6	7.1800698743028	2	2	simple	3	accessory
27	Male	English	2.3031	[v2,v1,v2,s1]	s1	v2	s2	vx	s2_v2	s1_v2	s2_vx	complex	v2	male	2	3	1	1	target	competitor	distractor	competitor	982	s2	v2	36	target	6	6.88959130835447	2	2	complex	2	species
27	Male	English	2.3031	[v2,v1,v2,s1]	s1	v1	sx	v1	s2_v2	sx_v1	s1_v1	simple_d	s2	male	3	2	1	1	target	distractor	competitor	target	1017	s2	v2	37	filler	6	6.92461239604856	2	2	unambiguous	1	accessory
27	Male	English	2.3031	[v2,v1,v2,s1]	s2	v2	sx	v1	s2_v2	s2_v1	sx_v1	complex	s2	male	1	3	2	2	competitor	target	distractor	target	1194	s2	v1	38	target	6	7.08506429395255	2	2	complex	2	accessory
27	Male	English	2.3031	[v2,v1,v2,s1]	s2	vx	sx	v2	s1_v1	sx_v2	s2_vx	unambig	s1	male	3	2	1	1	target	distractor	competitor	target	1420	s1	v1	39	filler	6	7.25841215059531	2	2	unambiguous	1	accessory
27	Male	English	2.3031	[v2,v1,v2,s1]	s2	v1	sx	v1	sx_v1	s2_v2	s2_v1	complex_c	v2	male	3	1	2	2	distractor	target	competitor	target	1359	s2	v2	40	filler	6	7.21450441415114	2	2	unambiguous	2	species
27	Male	English	2.3031	[v2,v1,v2,s1]	s2	v2	sx	v2	s1_v1	s2_v2	sx_v2	simple_d	s1	male	2	3	1	1	target	competitor	distractor	target	823	s1	v1	41	filler	6	6.71295620067707	2	2	unambiguous	1	accessory
27	Male	English	2.3031	[v2,v1,v2,s1]	s2	v2	s1	v1	sx_v2	s1_v1	s2_v2	simple	v2	male	3	2	1	1	target	distractor	competitor	target	1007	sx	v2	42	target	6	6.91473089271856	2	2	simple	1	species
27	Male	English	2.3031	[v2,v1,v2,s1]	s2	v2	sx	v2	s2_v2	s2_v1	sx_v2	complex_c	v1	male	1	3	2	2	competitor	target	distractor	target	991	s2	v1	43	filler	6	6.89871453432999	2	2	unambiguous	2	species
27	Male	English	2.3031	[v2,v1,v2,s1]	s1	v2	sx	vx	s2_v1	s1_v2	sx_vx	unambig	s2	male	2	3	1	1	target	competitor	distractor	target	985	s2	v1	44	filler	6	6.89264164117209	2	2	unambiguous	1	accessory
27	Male	English	2.3031	[v2,v1,v2,s1]	s1	v2	s1	vx	s1_v2	s2_v1	s1_vx	simple_d	s2	male	1	3	2	2	competitor	target	distractor	target	1031	s2	v1	45	filler	6	6.93828448401696	2	3	unambiguous	2	accessory
27	Male	English	2.3031	[v2,v1,v2,s1]	s2	vx	s1	v2	s2_v1	s2_vx	s1_v2	simple_c	v1	male	2	3	1	1	target	competitor	distractor	target	1384	s2	v1	46	filler	6	7.23273313617761	2	3	unambiguous	1	species
27	Male	English	2.3031	[v2,v1,v2,s1]	s2	v2	s1	v1	s1_v1	s2_v2	sx_v2	simple	v2	male	2	1	3	3	distractor	competitor	target	competitor	1055	sx	v2	47	target	6	6.96129604591017	2	3	simple	2	species
27	Male	English	2.3031	[v2,v1,v2,s1]	s2	v1	s1	v2	s2_v1	s2_v1	s1_v2	ambig	s2	male	1	3	2	2	competitor	target	distractor	target	961	s2	v1	48	filler	6	6.86797440897029	2	3	ambiguous	2	accessory
27	Male	English	2.3031	[v2,v1,v2,s1]	s1	v1	s2	v2	s2_v2	s1_vx	s1_v1	simple	s1	male	3	1	2	2	distractor	target	competitor	competitor	968	s1	vx	49	target	6	6.87523208727658	2	3	simple	3	accessory
27	Male	English	2.3031	[v2,v1,v2,s1]	s2	v2	s1	vx	s2_v2	s1_v2	s1_vx	complex	v2	male	1	3	2	2	competitor	target	distractor	target	840	s1	v2	50	target	6	6.73340189183736	2	3	complex	2	species
27	Male	English	2.3031	[v2,v1,v2,s1]	s2	v1	s1	v2	s2_v1	sx_v1	s1_v2	simple	v1	male	1	3	2	2	competitor	target	distractor	target	968	sx	v1	51	target	6	6.87523208727658	2	3	simple	2	species
27	Male	English	2.3031	[v2,v1,v2,s1]	s1	v1	s1	vx	s2_v1	s1_v1	s1_vx	complex_c	s2	male	2	3	1	1	target	competitor	distractor	target	1127	s2	v1	52	filler	6	7.02731451403978	2	3	unambiguous	1	accessory
27	Male	English	2.3031	[v2,v1,v2,s1]	s1	v2	s1	vx	s2_v2	s1_v2	s1_vx	complex_c	s2	male	2	3	1	1	target	competitor	distractor	target	1120	s2	v2	53	filler	6	7.02108396428914	2	3	unambiguous	1	accessory
27	Male	English	2.3031	[v2,v1,v2,s1]	s1	v1	s2	v2	s2_v2	sx_v1	s1_v1	simple	v1	male	3	1	2	2	distractor	target	competitor	target	910	sx	v1	54	target	6	6.8134445995109	2	3	simple	2	species
27	Male	English	2.3031	[v2,v1,v2,s1]	s2	v1	sx	v1	s2_v2	s2_v1	sx_v1	complex_c	v2	male	2	3	1	1	target	competitor	distractor	target	792	s2	v2	55	filler	6	6.67456139181443	2	3	unambiguous	1	species
27	Male	English	2.3031	[v2,v1,v2,s1]	s2	v2	s2	vx	s1_v2	s2_vx	s2_v2	complex_c	s1	male	3	2	1	1	target	distractor	competitor	target	665	s1	v2	56	filler	6	6.49978704065585	2	3	unambiguous	1	accessory
27	Male	English	2.3031	[v2,v1,v2,s1]	s1	v2	s2	vx	s1_v2	s2_vx	s2_v2	complex	v2	male	1	2	3	3	competitor	distractor	target	competitor	1119	s2	v2	57	target	6	7.02019070831193	2	3	complex	1	species
27	Male	English	2.3031	[v2,v1,v2,s1]	s1	v1	s2	vx	s2_vx	s2_v1	s1_v1	complex	v1	male	3	1	2	2	distractor	target	competitor	competitor	873	s2	v1	58	target	6	6.7719355558396	2	3	complex	3	species
27	Male	English	2.3031	[v2,v1,v2,s1]	s1	v2	sx	vx	s2_v1	s1_v2	sx_vx	unambig	v1	male	2	3	1	1	target	competitor	distractor	target	1022	s2	v1	59	filler	6	6.92951677076365	2	3	unambiguous	1	species
27	Male	English	2.3031	[v2,v1,v2,s1]	s1	v2	s2	vx	s2_v2	s1_v2	s2_vx	complex	v2	male	2	3	1	1	target	competitor	distractor	target	792	s2	v2	60	target	6	6.67456139181443	2	3	complex	1	species
27	Male	English	2.3031	[v2,v1,v2,s1]	s1	v2	sx	v1	s1_v2	sx_v1	s1_v2	ambig	v2	male	3	2	1	1	target	distractor	competitor	competitor	855	s1	v2	61	filler	6	6.75110146893676	2	3	ambiguous	3	species
27	Male	English	2.3031	[v2,v1,v2,s1]	s2	v2	s2	vx	s2_v2	s1_v2	s2_vx	complex_c	s1	male	1	3	2	2	competitor	target	distractor	target	808	s1	v2	62	filler	6	6.69456205852109	2	3	unambiguous	2	accessory
27	Male	English	2.3031	[v2,v1,v2,s1]	s2	vx	sx	v2	s1_v1	s2_vx	sx_v2	unambig	s1	male	2	3	1	1	target	competitor	distractor	target	928	s1	v1	63	filler	6	6.8330317327862	2	3	unambiguous	1	accessory
27	Male	English	2.3031	[v2,v1,v2,s1]	s1	v1	sx	v1	s1_v1	s1_v2	sx_v1	complex_c	v2	male	1	3	2	2	competitor	target	distractor	target	810	s1	v2	64	filler	6	6.69703424766648	2	3	unambiguous	2	species
27	Male	English	2.3031	[v2,v1,v2,s1]	s1	v1	s2	vx	s2_v1	s2_vx	s1_v1	complex	v1	male	3	2	1	1	target	distractor	competitor	competitor	937	s2	v1	65	target	6	6.84268328223842	2	3	complex	3	species
24	Female	English	3.29313333333333	[v2,v1,v2,s1]	s2	v1	sx	v2	s2_v1	sx_v2	s1_vx	unambig	s1	female	1	2	3	3	competitor	distractor	target	target	6240	s1	vx	0	filler	7	8.73873546136347	1	1	unambiguous	3	accessory
24	Female	English	3.29313333333333	[v2,v1,v2,s1]	s1	v1	sx	v1	sx_v1	s1_v1	s1_v2	complex_c	v2	female	2	1	3	3	distractor	competitor	target	target	2224	s1	v2	1	filler	7	7.70706265537047	1	1	unambiguous	3	species
24	Female	English	3.29313333333333	[v2,v1,v2,s1]	s1	v1	sx	v2	s1_v1	sx_v2	s1_v1	ambig	s1	female	3	2	1	1	target	distractor	competitor	target	3912	s1	v1	2	filler	7	8.27180403115471	1	1	ambiguous	1	accessory
24	Female	English	3.29313333333333	[v2,v1,v2,s1]	sx	v2	s2	v1	sx_v2	s1_v2	s2_v1	simple_c	s1	female	1	3	2	2	competitor	target	distractor	target	2080	s1	v2	3	filler	7	7.64012317269536	1	1	unambiguous	2	accessory
24	Female	English	3.29313333333333	[v2,v1,v2,s1]	s1	v1	s2	v2	s1_vx	s1_v1	s2_v2	simple	s1	female	2	3	1	1	target	competitor	distractor	competitor	3919	s1	vx	4	target	7	8.27359179819963	1	1	simple	2	accessory
24	Female	English	3.29313333333333	[v2,v1,v2,s1]	s2	v1	sx	v1	s2_v1	sx_v1	s1_v2	simple_d	s1	female	1	2	3	3	competitor	distractor	target	target	1520	s1	v2	5	filler	7	7.32646561384032	1	1	unambiguous	3	accessory
24	Female	English	3.29313333333333	[v2,v1,v2,s1]	s1	v1	s2	vx	s2_v1	s1_v1	s2_vx	complex	v1	female	2	3	1	1	target	competitor	distractor	competitor	5257	s2	v1	6	target	7	8.56731580081945	1	1	complex	2	species
24	Female	English	3.29313333333333	[v2,v1,v2,s1]	s2	v1	s2	vx	s2_v1	s1_v1	s2_vx	complex_c	s1	female	1	3	2	2	competitor	target	distractor	target	1168	s1	v1	7	filler	7	7.06304816338817	1	1	unambiguous	2	accessory
24	Female	English	3.29313333333333	[v2,v1,v2,s1]	s1	v2	s1	vx	s1_v2	s2_v2	s1_vx	complex_c	s2	female	1	3	2	2	competitor	target	distractor	target	2696	s2	v2	8	filler	7	7.8995244720322	1	1	unambiguous	2	accessory
24	Female	English	3.29313333333333	[v2,v1,v2,s1]	s1	v2	s2	v1	s1_vx	s2_v1	s1_v2	simple	s1	female	3	2	1	1	target	distractor	competitor	target	6567	s1	vx	9	target	7	8.78981238619097	1	1	simple	1	accessory
24	Female	English	3.29313333333333	[v2,v1,v2,s1]	s2	v2	s2	vx	s1_v1	s2_vx	s2_v2	simple_d	s1	female	3	2	1	1	target	distractor	competitor	target	1072	s1	v1	10	filler	7	6.97728134163075	1	1	unambiguous	1	accessory
24	Female	English	3.29313333333333	[v2,v1,v2,s1]	s1	v2	s1	vx	s1_vx	s2_v1	s1_v2	simple_d	v1	female	3	1	2	2	distractor	target	competitor	distractor	1264	s2	v1	11	filler	7	7.1420365747068	1	1	unambiguous	1	species
24	Female	English	3.29313333333333	[v2,v1,v2,s1]	s1	v1	sx	vx	s2_v2	sx_vx	s1_v1	unambig	v2	female	3	2	1	1	target	distractor	competitor	target	1360	s2	v2	12	filler	7	7.2152399787301	1	1	unambiguous	1	species
24	Female	English	3.29313333333333	[v2,v1,v2,s1]	s1	v2	s2	v1	s1_v2	s1_v2	s2_v1	ambig	v2	female	1	3	2	2	competitor	target	distractor	competitor	2144	s1	v2	13	filler	7	7.67042852219069	1	1	ambiguous	1	species
24	Female	English	3.29313333333333	[v2,v1,v2,s1]	s2	v1	s1	v2	s2_v1	s2_vx	s1_v2	simple	s2	female	1	3	2	2	competitor	target	distractor	competitor	1960	s2	vx	14	target	7	7.58069975222456	1	1	simple	1	accessory
24	Female	English	3.29313333333333	[v2,v1,v2,s1]	s1	v2	s1	vx	s1_v2	s2_v2	s1_vx	complex_c	s2	female	1	3	2	2	competitor	target	distractor	target	1224	s2	v2	15	filler	7	7.10987946307227	1	1	unambiguous	2	accessory
24	Female	English	3.29313333333333	[v2,v1,v2,s1]	s1	vx	sx	v1	sx_v1	s2_v2	s1_vx	unambig	v2	female	3	1	2	2	distractor	target	competitor	target	1368	s2	v2	16	filler	7	7.2211050981825	1	1	unambiguous	2	species
24	Female	English	3.29313333333333	[v2,v1,v2,s1]	s1	v2	s1	vx	s2_v2	s1_v2	s1_vx	complex_c	s2	female	2	3	1	1	target	competitor	distractor	target	1823	s2	v2	17	filler	7	7.50823877467866	1	1	unambiguous	1	accessory
24	Female	English	3.29313333333333	[v2,v1,v2,s1]	s1	vx	s2	v1	s2_v1	s1_vx	s1_v2	simple_c	v2	female	2	1	3	3	distractor	competitor	target	target	1816	s1	v2	18	filler	7	7.50439155916124	1	1	unambiguous	3	species
24	Female	English	3.29313333333333	[v2,v1,v2,s1]	s2	v2	s1	v1	s1_v1	s2_vx	s2_v2	simple	s2	female	3	1	2	2	distractor	target	competitor	distractor	1976	s2	vx	19	target	7	7.58882987830781	1	1	simple	1	accessory
24	Female	English	3.29313333333333	[v2,v1,v2,s1]	s2	v1	s1	v2	s1_v2	s2_vx	s2_v1	simple	s2	female	3	1	2	2	distractor	target	competitor	distractor	1560	s2	vx	20	target	7	7.35244110024358	1	1	simple	1	accessory
24	Female	English	3.29313333333333	[v2,v1,v2,s1]	s2	v1	sx	v2	sx_v2	s2_v1	s2_v2	complex	s2	female	2	1	3	3	distractor	competitor	target	distractor	2211	s2	v2	21	target	7	7.70120018085745	1	1	complex	1	accessory
24	Female	English	3.29313333333333	[v2,v1,v2,s1]	s1	v1	s2	v2	s1_v1	s2_v2	s1_v1	ambig	s1	female	3	2	1	1	target	distractor	competitor	distractor	4585	s1	v1	22	filler	7	8.43054538469057	1	1	ambiguous	2	accessory
24	Female	English	3.29313333333333	[v2,v1,v2,s1]	s2	v2	s1	v1	sx_v2	s1_v1	s2_v2	simple	v2	female	3	2	1	1	target	distractor	competitor	target	2216	sx	v2	23	target	7	7.70345904786717	1	2	simple	1	species
24	Female	English	3.29313333333333	[v2,v1,v2,s1]	s1	vx	sx	v2	s2_v1	s1_vx	sx_v2	unambig	s2	female	2	3	1	1	target	competitor	distractor	target	1687	s2	v1	24	filler	7	7.43070708254597	1	2	unambiguous	1	accessory
24	Female	English	3.29313333333333	[v2,v1,v2,s1]	s1	v1	s2	v2	s1_vx	s1_v1	s2_v2	simple	s1	female	2	3	1	1	target	competitor	distractor	distractor	2104	s1	vx	25	target	7	7.6515955738576	1	2	simple	3	accessory
24	Female	English	3.29313333333333	[v2,v1,v2,s1]	s1	v2	s2	v1	sx_v2	s2_v1	s1_v2	simple	v2	female	3	2	1	1	target	distractor	competitor	target	1720	sx	v2	26	target	7	7.4500795698075	1	2	simple	1	species
24	Female	English	3.29313333333333	[v2,v1,v2,s1]	s2	v1	s1	v2	s2_v1	sx_v1	s1_v2	simple	v1	female	1	3	2	2	competitor	target	distractor	target	1400	sx	v1	27	target	7	7.24422751560335	1	2	simple	2	species
24	Female	English	3.29313333333333	[v2,v1,v2,s1]	s2	v2	s1	vx	s1_vx	s1_v2	s2_v2	complex	v2	female	3	1	2	2	distractor	target	competitor	competitor	3760	s1	v2	28	target	7	8.23217423638394	1	2	complex	3	species
24	Female	English	3.29313333333333	[v2,v1,v2,s1]	s1	v2	s2	v1	s1_v2	s2_v1	s1_v2	ambig	s1	female	1	2	3	3	competitor	distractor	target	distractor	1937	s1	v2	29	filler	7	7.568895663407	1	2	ambiguous	2	accessory
24	Female	English	3.29313333333333	[v2,v1,v2,s1]	s1	v1	sx	v2	s1_v1	sx_v2	s1_v1	ambig	s1	female	1	2	3	3	competitor	distractor	target	distractor	2056	s1	v1	30	filler	7	7.62851762657506	1	2	ambiguous	2	accessory
24	Female	English	3.29313333333333	[v2,v1,v2,s1]	s1	v2	s2	v1	sx_v2	s1_v2	s2_v1	simple	v2	female	2	3	1	1	target	competitor	distractor	target	1904	sx	v2	31	target	7	7.55171221535131	1	2	simple	1	species
24	Female	English	3.29313333333333	[v2,v1,v2,s1]	s2	v2	s1	v1	s1_v1	s2_v2	s2_v2	ambig	v2	female	3	1	2	2	distractor	target	competitor	target	2951	s2	v2	32	filler	7	7.98989937494294	1	2	ambiguous	2	species
24	Female	English	3.29313333333333	[v2,v1,v2,s1]	s2	v1	sx	v2	s2_v1	sx_v2	s1_vx	unambig	s1	female	1	2	3	3	competitor	distractor	target	target	1552	s1	vx	33	filler	7	7.34729970074316	1	2	unambiguous	3	accessory
24	Female	English	3.29313333333333	[v2,v1,v2,s1]	s1	v2	sx	v1	sx_v1	s1_v1	s1_v2	complex	s1	female	3	1	2	2	distractor	target	competitor	target	2216	s1	v1	34	target	7	7.70345904786717	2	2	complex	2	accessory
24	Female	English	3.29313333333333	[v2,v1,v2,s1]	s2	v2	sx	v1	s2_v2	sx_v1	s2_v1	complex	s2	female	1	2	3	3	competitor	distractor	target	competitor	1952	s2	v1	35	target	7	7.57660976697304	2	2	complex	1	accessory
24	Female	English	3.29313333333333	[v2,v1,v2,s1]	s2	vx	sx	v1	sx_v1	s1_v2	s2_vx	unambig	s1	female	3	1	2	2	distractor	target	competitor	target	1264	s1	v2	36	filler	7	7.1420365747068	2	2	unambiguous	2	accessory
24	Female	English	3.29313333333333	[v2,v1,v2,s1]	s2	v2	s1	vx	s2_v2	s1_v2	s1_vx	complex	v2	female	1	3	2	2	competitor	target	distractor	competitor	1752	s1	v2	37	target	7	7.46851327149634	2	2	complex	1	species
24	Female	English	3.29313333333333	[v2,v1,v2,s1]	s1	v1	sx	v2	s1_v1	s1_v1	sx_v2	ambig	v1	female	2	3	1	1	target	competitor	distractor	distractor	2873	s1	v1	38	filler	7	7.96311205897929	2	2	ambiguous	3	species
24	Female	English	3.29313333333333	[v2,v1,v2,s1]	s2	v2	sx	v2	sx_v2	s2_v1	s2_v2	complex_c	v1	female	3	1	2	2	distractor	target	competitor	target	1520	s2	v1	39	filler	7	7.32646561384032	2	2	unambiguous	2	species
