Answer.age	Answer.gender	Answer.language	Answer.time_in_minutes	imagelocation	img1	img2	img3	response	rt	trial	workerid	logrt	half	combination
37	female	English	0.961783333333333	2	sx_v2	s1_v2	s2_v1	s1_v2	5394	0	0	8.59304250369967	1	sx_v2 s1_v2 s2_v1
37	female	English	0.961783333333333	2	s2_v1	s2_vx	s1_v1	s2_vx	4588	1	0	8.43119947824926	1	s2_v1 s2_vx s1_v1
37	female	English	0.961783333333333	3	s2_vx	s1_v2	s2_v1	s2_v1	890	2	0	6.79122146272619	1	s2_vx s1_v2 s2_v1
37	female	English	0.961783333333333	2	s2_vx	s2_v1	s1_v1	s2_v1	577	3	0	6.3578422665081	1	s2_vx s2_v1 s1_v1
37	female	English	0.961783333333333	1	s1_v1	s1_v2	sx_v1	s1_v1	642	4	0	6.46458830368996	1	s1_v1 s1_v2 sx_v1
37	female	English	0.961783333333333	2	s2_v1	sx_v2	s1_vx	sx_v2	10230	5	0	9.23307985894567	1	s2_v1 sx_v2 s1_vx
37	female	English	0.961783333333333	1	s1_v2	s2_vx	s2_v1	s1_v2	2344	6	0	7.7596141506969	1	s1_v2 s2_vx s2_v1
37	female	English	0.961783333333333	1	s1_v2	s1_vx	s2_v1	s1_v2	982	7	0	6.88959130835447	1	s1_v2 s1_vx s2_v1
37	female	English	0.961783333333333	1	s1_v2	s1_v1	sx_v1	s1_v2	601	8	0	6.39859493453521	1	s1_v2 s1_v1 sx_v1
37	female	English	0.961783333333333	3	s1_v1	s2_v2	s2_vx	s2_vx	1821	9	0	7.50714107972761	1	s1_v1 s2_v2 s2_vx
37	female	English	0.961783333333333	3	s1_v1	s1_vx	s2_v1	s2_v1	587	10	0	6.3750248198281	1	s1_v1 s1_vx s2_v1
37	female	English	0.961783333333333	2	sx_v2	s1_vx	s2_v1	s1_vx	614	11	0	6.41999492814714	1	sx_v2 s1_vx s2_v1
37	female	English	0.961783333333333	3	s2_v2	s2_v1	sx_v1	sx_v1	668	12	0	6.50428817353665	1	s2_v2 s2_v1 sx_v1
37	female	English	0.961783333333333	1	s2_v1	s2_v1	sx_v2	s2_v1	721	13	0	6.58063913728495	1	s2_v1 s2_v1 sx_v2
37	female	English	0.961783333333333	3	s2_v1	s1_v1	s2_vx	s2_vx	1110	14	0	7.01211529430638	2	s2_v1 s1_v1 s2_vx
37	female	English	0.961783333333333	1	sx_v2	s1_v1	s1_v1	sx_v2	866	15	0	6.76388490856244	2	sx_v2 s1_v1 s1_v1
37	female	English	0.961783333333333	1	s1_v1	s2_v2	sx_v2	s1_v1	926	16	0	6.83087423464618	2	s1_v1 s2_v2 sx_v2
37	female	English	0.961783333333333	1	s2_v1	s1_v2	s1_v2	s2_v1	801	17	0	6.68586094706836	2	s2_v1 s1_v2 s1_v2
37	female	English	0.961783333333333	2	s1_v1	sx_v2	s2_vx	sx_v2	1723	18	0	7.45182223652793	2	s1_v1 sx_v2 s2_vx
37	female	English	0.961783333333333	1	s2_vx	sx_v2	s1_v1	s2_vx	1568	19	0	7.35755620091035	2	s2_vx sx_v2 s1_v1
37	female	English	0.961783333333333	3	s2_v2	s1_v1	sx_v1	sx_v1	1305	20	0	7.17395831975679	2	s2_v2 s1_v1 sx_v1
37	female	English	0.961783333333333	1	s2_v1	sx_v2	s1_v2	s2_v1	1098	21	0	7.00124562206948	2	s2_v1 sx_v2 s1_v2
37	female	English	0.961783333333333	3	s2_v1	s1_v1	s1_vx	s1_vx	1053	22	0	6.95939851213398	2	s2_v1 s1_v1 s1_vx
37	female	English	0.961783333333333	3	s1_v2	s1_v2	sx_v1	sx_v1	723	23	0	6.58340922215876	2	s1_v2 s1_v2 sx_v1
37	female	English	0.961783333333333	2	s2_v2	s1_v1	sx_v2	s1_v1	811	24	0	6.69826805411541	2	s2_v2 s1_v1 sx_v2
37	female	English	0.961783333333333	3	sx_v1	s2_v1	s1_v2	s1_v2	1101	25	0	7.00397413672268	2	sx_v1 s2_v1 s1_v2
38	male	english	1.1134	2	s1_vx	s2_v1	s1_v2	s2_v1	9033	0	1	9.10863981714984	1	s1_vx s2_v1 s1_v2
38	male	english	1.1134	2	s1_v2	s2_v1	s2_v1	s2_v1	3293	1	1	8.09955428237636	1	s1_v2 s2_v1 s2_v1
38	male	english	1.1134	3	s1_vx	s2_v2	s1_v1	s1_v1	2256	2	1	7.72134861261795	1	s1_vx s2_v2 s1_v1
38	male	english	1.1134	3	s2_v2	s1_vx	sx_v1	sx_v1	2305	3	1	7.74283595543075	1	s2_v2 s1_vx sx_v1
38	male	english	1.1134	3	s1_vx	s1_v2	s2_v1	s2_v1	1336	4	1	7.19743535409659	1	s1_vx s1_v2 s2_v1
38	male	english	1.1134	1	s1_v1	s2_v2	sx_v1	s1_v1	2995	5	1	8.00469951054955	1	s1_v1 s2_v2 sx_v1
38	male	english	1.1134	1	sx_v1	s2_v1	s1_v2	sx_v1	840	6	1	6.73340189183736	1	sx_v1 s2_v1 s1_v2
38	male	english	1.1134	3	sx_v2	s1_v2	s2_v1	s2_v1	920	7	1	6.82437367004309	1	sx_v2 s1_v2 s2_v1
38	male	english	1.1134	1	s1_v1	s2_v2	sx_v2	s1_v1	1240	8	1	7.12286665859908	1	s1_v1 s2_v2 sx_v2
38	male	english	1.1134	1	s1_v1	s2_v2	s2_v2	s1_v1	624	9	1	6.43615036836943	1	s1_v1 s2_v2 s2_v2
38	male	english	1.1134	3	s2_v2	sx_v1	s1_v1	s1_v1	1144	10	1	7.04228617193974	1	s2_v2 sx_v1 s1_v1
38	male	english	1.1134	2	s2_vx	sx_v1	s1_v2	sx_v1	807	11	1	6.69332366826995	1	s2_vx sx_v1 s1_v2
38	male	english	1.1134	2	s1_vx	s2_v1	s1_v1	s2_v1	248	12	1	5.51342874616498	1	s1_vx s2_v1 s1_v1
38	male	english	1.1134	1	s2_v1	sx_v2	s1_vx	s2_v1	1000	13	1	6.90775527898214	1	s2_v1 sx_v2 s1_vx
38	male	english	1.1134	3	s1_v2	sx_v2	s1_v1	s1_v1	704	14	1	6.55677835615804	2	s1_v2 sx_v2 s1_v1
38	male	english	1.1134	1	s2_v1	s2_v2	sx_v2	s2_v1	3216	15	1	8.07589363029886	2	s2_v1 s2_v2 sx_v2
38	male	english	1.1134	3	sx_v2	s2_v1	s2_v1	s2_v1	792	16	1	6.67456139181443	2	sx_v2 s2_v1 s2_v1
38	male	english	1.1134	1	s1_v1	sx_v2	s2_v2	s1_v1	913	17	1	6.81673588059497	2	s1_v1 sx_v2 s2_v2
38	male	english	1.1134	1	s1_v1	s1_v2	sx_v2	s1_v1	879	18	1	6.77878489768518	2	s1_v1 s1_v2 sx_v2
38	male	english	1.1134	1	s2_v1	s1_vx	s1_v1	s2_v1	736	19	1	6.60123011872888	2	s2_v1 s1_vx s1_v1
38	male	english	1.1134	1	s2_v1	s1_v1	s2_vx	s2_v1	567	20	1	6.34035930372775	2	s2_v1 s1_v1 s2_vx
38	male	english	1.1134	2	s1_v2	s2_v1	s1_v2	s2_v1	696	21	1	6.54534966033442	2	s1_v2 s2_v1 s1_v2
38	male	english	1.1134	2	sx_v2	s1_v1	s1_v2	s1_v1	511	22	1	6.2363695902037	2	sx_v2 s1_v1 s1_v2
38	male	english	1.1134	3	s1_v2	s1_v2	s2_v1	s2_v1	608	23	1	6.41017488196617	2	s1_v2 s1_v2 s2_v1
38	male	english	1.1134	2	sx_v2	s1_v1	s2_vx	s1_v1	689	24	1	6.53524127101366	2	sx_v2 s1_v1 s2_vx
38	male	english	1.1134	3	sx_v1	s2_v2	s1_v1	s1_v1	687	25	1	6.53233429222235	2	sx_v1 s2_v2 s1_v1
24	Male	English	0.894833333333333	2	sx_v1	s2_v2	s2_v2	s2_v2	3655	0	2	8.20385137218388	1	sx_v1 s2_v2 s2_v2
24	Male	English	0.894833333333333	3	s2_v2	s2_v2	s1_v1	s1_v1	2188	1	2	7.69074316354187	1	s2_v2 s2_v2 s1_v1
24	Male	English	0.894833333333333	1	s1_v2	s2_v1	s2_v1	s1_v2	939	2	2	6.84481547920826	1	s1_v2 s2_v1 s2_v1
24	Male	English	0.894833333333333	3	s1_v1	s1_v1	s2_v2	s2_v2	1050	3	2	6.95654544315157	1	s1_v1 s1_v1 s2_v2
24	Male	English	0.894833333333333	3	s2_v2	s1_v1	sx_v1	sx_v1	1390	4	2	7.23705902612474	1	s2_v2 s1_v1 sx_v1
24	Male	English	0.894833333333333	2	s1_v1	sx_v2	s1_v2	sx_v2	1080	5	2	6.98471632011827	1	s1_v1 sx_v2 s1_v2
24	Male	English	0.894833333333333	2	s2_v2	s1_vx	s1_v1	s1_vx	1381	6	2	7.23056315340929	1	s2_v2 s1_vx s1_v1
24	Male	English	0.894833333333333	1	sx_v2	s2_v1	s1_v2	sx_v2	1548	7	2	7.34471905414967	1	sx_v2 s2_v1 s1_v2
24	Male	English	0.894833333333333	2	s2_v1	sx_v1	s1_v2	sx_v1	1714	8	2	7.44658509915773	1	s2_v1 sx_v1 s1_v2
24	Male	English	0.894833333333333	2	s1_v1	s2_v2	s1_v1	s2_v2	1377	9	2	7.22766249872865	1	s1_v1 s2_v2 s1_v1
24	Male	English	0.894833333333333	1	s2_v2	s1_v1	s1_v1	s2_v2	1208	10	2	7.09672137849476	1	s2_v2 s1_v1 s1_v1
24	Male	English	0.894833333333333	1	sx_v1	s1_v1	s1_v2	sx_v1	2190	11	2	7.69165682281055	1	sx_v1 s1_v1 s1_v2
24	Male	English	0.894833333333333	3	s1_v2	s2_v1	sx_v1	sx_v1	959	12	2	6.86589107488344	1	s1_v2 s2_v1 sx_v1
24	Male	English	0.894833333333333	2	sx_v1	s2_vx	s1_v2	s2_vx	1147	13	2	7.04490511712937	1	sx_v1 s2_vx s1_v2
24	Male	English	0.894833333333333	1	sx_v2	s2_v1	s2_v2	sx_v2	1307	14	2	7.17548971362422	2	sx_v2 s2_v1 s2_v2
24	Male	English	0.894833333333333	2	s2_vx	s1_v1	s2_v2	s1_v1	973	15	2	6.880384082186	2	s2_vx s1_v1 s2_v2
24	Male	English	0.894833333333333	3	s2_vx	s1_v2	sx_v1	sx_v1	1227	16	2	7.11232744471091	2	s2_vx s1_v2 sx_v1
24	Male	English	0.894833333333333	3	s2_v2	sx_v1	s1_vx	s1_vx	1192	17	2	7.0833878476253	2	s2_v2 sx_v1 s1_vx
24	Male	English	0.894833333333333	3	s2_v2	s1_v1	s1_vx	s1_vx	786	18	2	6.66695679242921	2	s2_v2 s1_v1 s1_vx
24	Male	English	0.894833333333333	2	sx_v2	s2_vx	s1_v1	s2_vx	936	19	2	6.84161547647759	2	sx_v2 s2_vx s1_v1
24	Male	English	0.894833333333333	2	s1_v2	sx_vx	s2_v1	sx_vx	690	20	2	6.5366915975913	2	s1_v2 sx_vx s2_v1
24	Male	English	0.894833333333333	1	s1_vx	sx_v1	s2_v2	s1_vx	960	21	2	6.86693328446188	2	s1_vx sx_v1 s2_v2
24	Male	English	0.894833333333333	1	s1_vx	sx_v2	s2_v1	s1_vx	1110	22	2	7.01211529430638	2	s1_vx sx_v2 s2_v1
24	Male	English	0.894833333333333	3	sx_v1	s2_v2	s1_vx	s1_vx	753	23	2	6.62406522779989	2	sx_v1 s2_v2 s1_vx
24	Male	English	0.894833333333333	2	s2_v2	s1_vx	s1_v2	s1_vx	709	24	2	6.56385552653213	2	s2_v2 s1_vx s1_v2
24	Male	English	0.894833333333333	3	s1_v2	sx_v1	s2_vx	s2_vx	813	25	2	6.70073110954781	2	s1_v2 sx_v1 s2_vx
38	female	English	1.47686666666667	2	s1_vx	sx_v2	s2_v1	sx_v2	12694	0	3	9.44888471986641	1	s1_vx sx_v2 s2_v1
38	female	English	1.47686666666667	3	s2_v2	s2_v2	sx_v1	sx_v1	6038	1	3	8.70582811026678	1	s2_v2 s2_v2 sx_v1
38	female	English	1.47686666666667	2	s1_v1	s1_v2	sx_v1	s1_v2	5853	2	3	8.67470962929122	1	s1_v1 s1_v2 sx_v1
38	female	English	1.47686666666667	3	sx_v1	s2_v2	s2_v1	s2_v1	4191	3	3	8.34069464792507	1	sx_v1 s2_v2 s2_v1
38	female	English	1.47686666666667	3	s2_v2	s2_v2	s1_v1	s1_v1	3290	4	3	8.09864284375942	1	s2_v2 s2_v2 s1_v1
38	female	English	1.47686666666667	2	s1_v1	s2_v2	s2_v2	s2_v2	2812	5	3	7.94165125293056	1	s1_v1 s2_v2 s2_v2
38	female	English	1.47686666666667	2	s2_v2	s1_vx	s1_v2	s1_vx	797	6	3	6.68085467879022	1	s2_v2 s1_vx s1_v2
38	female	English	1.47686666666667	3	sx_v2	s2_vx	s1_v1	s1_v1	1918	7	3	7.55903825544338	1	sx_v2 s2_vx s1_v1
38	female	English	1.47686666666667	2	sx_v2	s1_v2	s1_v1	s1_v2	922	8	3	6.82654522355659	1	sx_v2 s1_v2 s1_v1
38	female	English	1.47686666666667	3	s1_v1	s2_v2	s1_vx	s1_vx	1433	9	3	7.26752542782817	1	s1_v1 s2_v2 s1_vx
38	female	English	1.47686666666667	1	s1_v1	s2_v1	s2_vx	s1_v1	796	10	3	6.67959918584438	1	s1_v1 s2_v1 s2_vx
38	female	English	1.47686666666667	3	s2_vx	s1_v2	s2_v1	s2_v1	641	11	3	6.46302945692067	1	s2_vx s1_v2 s2_v1
38	female	English	1.47686666666667	1	s1_v1	sx_v1	s2_v2	s1_v1	698	12	3	6.54821910276237	1	s1_v1 sx_v1 s2_v2
38	female	English	1.47686666666667	2	s1_v2	s2_vx	sx_v1	s2_vx	527	13	3	6.26720054854136	1	s1_v2 s2_vx sx_v1
38	female	English	1.47686666666667	3	s1_v1	s2_vx	s2_v2	s2_v2	611	14	3	6.4150969591716	2	s1_v1 s2_vx s2_v2
38	female	English	1.47686666666667	2	s2_v2	s2_vx	s1_v2	s2_vx	394	15	3	5.97635090929793	2	s2_v2 s2_vx s1_v2
38	female	English	1.47686666666667	1	sx_v1	s1_v1	s2_v2	sx_v1	536	16	3	6.2841341610708	2	sx_v1 s1_v1 s2_v2
38	female	English	1.47686666666667	2	s2_vx	s1_v2	s2_v2	s1_v2	518	17	3	6.24997524225948	2	s2_vx s1_v2 s2_v2
38	female	English	1.47686666666667	3	s2_v1	sx_v2	s2_v2	s2_v2	472	18	3	6.15697898558556	2	s2_v1 sx_v2 s2_v2
38	female	English	1.47686666666667	2	s2_v2	s1_v1	s2_v2	s1_v1	456	19	3	6.12249280951439	2	s2_v2 s1_v1 s2_v2
38	female	English	1.47686666666667	1	s2_v2	sx_v1	s1_vx	s2_v2	537	20	3	6.28599809450886	2	s2_v2 sx_v1 s1_vx
38	female	English	1.47686666666667	3	sx_v2	s2_v1	s2_v2	s2_v2	549	21	3	6.30809844150953	2	sx_v2 s2_v1 s2_v2
38	female	English	1.47686666666667	2	s2_v1	sx_vx	s1_v2	sx_vx	501	22	3	6.21660610108486	2	s2_v1 sx_vx s1_v2
38	female	English	1.47686666666667	1	s2_v1	s1_v2	sx_v2	s2_v1	472	23	3	6.15697898558556	2	s2_v1 s1_v2 sx_v2
38	female	English	1.47686666666667	3	s1_vx	s2_v1	s1_v2	s1_v2	598	24	3	6.39359075395063	2	s1_vx s2_v1 s1_v2
38	female	English	1.47686666666667	2	s2_v2	s1_v1	sx_v1	s1_v1	688	25	3	6.53378883793334	2	s2_v2 s1_v1 sx_v1
22	Male	English	2.58856666666667	1	s1_v2	s2_v1	s1_v2	s1_v2	13130	0	4	9.48265496729684	1	s1_v2 s2_v1 s1_v2
22	Male	English	2.58856666666667	2	s2_v2	s1_v2	s2_vx	s1_v2	4195	1	4	8.34164861890131	1	s2_v2 s1_v2 s2_vx
22	Male	English	2.58856666666667	1	s2_v2	sx_vx	s1_v1	s2_v2	1702	2	4	7.43955930913332	1	s2_v2 sx_vx s1_v1
22	Male	English	2.58856666666667	3	s2_v1	sx_v1	s2_v2	s2_v2	6895	3	4	8.8385517902274	1	s2_v1 sx_v1 s2_v2
22	Male	English	2.58856666666667	3	s2_v1	s2_v1	sx_v2	sx_v2	1584	4	4	7.36770857237437	1	s2_v1 s2_v1 sx_v2
22	Male	English	2.58856666666667	1	s2_v2	s1_vx	s1_v1	s2_v2	1727	5	4	7.45414107814668	1	s2_v2 s1_vx s1_v1
22	Male	English	2.58856666666667	1	sx_v2	s2_v1	s1_v2	sx_v2	3216	6	4	8.07589363029886	1	sx_v2 s2_v1 s1_v2
22	Male	English	2.58856666666667	1	s1_v2	s2_v1	s1_vx	s1_v2	1255	7	4	7.13489085156588	1	s1_v2 s2_v1 s1_vx
22	Male	English	2.58856666666667	2	s1_v1	s2_v2	sx_vx	s2_v2	736	8	4	6.60123011872888	1	s1_v1 s2_v2 sx_vx
22	Male	English	2.58856666666667	2	s2_vx	sx_v2	s1_v1	sx_v2	927	9	4	6.83195356556585	1	s2_vx sx_v2 s1_v1
22	Male	English	2.58856666666667	1	sx_v2	s1_vx	s2_v1	sx_v2	2481	10	4	7.8164169836918	1	sx_v2 s1_vx s2_v1
22	Male	English	2.58856666666667	1	s1_v2	s2_v1	s2_vx	s1_v2	1968	11	4	7.5847730776122	1	s1_v2 s2_v1 s2_vx
22	Male	English	2.58856666666667	1	s2_v2	s1_v1	s2_vx	s2_v2	800	12	4	6.68461172766793	1	s2_v2 s1_v1 s2_vx
22	Male	English	2.58856666666667	1	s1_v2	s1_v2	s2_v1	s1_v2	4655	13	4	8.44569718971117	1	s1_v2 s1_v2 s2_v1
22	Male	English	2.58856666666667	3	sx_v1	s1_v1	s1_v2	s1_v2	1192	14	4	7.0833878476253	2	sx_v1 s1_v1 s1_v2
22	Male	English	2.58856666666667	3	s1_v2	sx_v1	s1_v2	s1_v2	1568	15	4	7.35755620091035	2	s1_v2 sx_v1 s1_v2
22	Male	English	2.58856666666667	1	s1_v2	s1_vx	s2_v1	s1_v2	2687	16	4	7.89618060861549	2	s1_v2 s1_vx s2_v1
22	Male	English	2.58856666666667	3	s2_v2	s2_vx	s1_v2	s1_v2	12848	17	4	9.46094343618654	2	s2_v2 s2_vx s1_v2
22	Male	English	2.58856666666667	2	s1_v1	s2_v2	sx_v1	s2_v2	711	18	4	6.56667242980324	2	s1_v1 s2_v2 sx_v1
22	Male	English	2.58856666666667	1	s1_v2	s2_v2	s2_vx	s1_v2	1696	19	4	7.43602781635185	2	s1_v2 s2_v2 s2_vx
22	Male	English	2.58856666666667	3	sx_vx	s2_v1	s1_v2	s1_v2	695	20	4	6.54391184556479	2	sx_vx s2_v1 s1_v2
22	Male	English	2.58856666666667	3	sx_v1	s2_vx	s1_v2	s1_v2	696	21	4	6.54534966033442	2	sx_v1 s2_vx s1_v2
22	Male	English	2.58856666666667	2	s2_v1	s1_v1	s1_vx	s1_v1	4167	22	4	8.33495163142245	2	s2_v1 s1_v1 s1_vx
22	Male	English	2.58856666666667	2	s2_v1	s1_v1	s2_vx	s1_v1	881	23	4	6.78105762593618	2	s2_v1 s1_v1 s2_vx
22	Male	English	2.58856666666667	1	s1_v1	s2_v1	s1_vx	s1_v1	839	24	4	6.73221070646721	2	s1_v1 s2_v1 s1_vx
22	Male	English	2.58856666666667	1	s1_v2	s2_vx	s2_v2	s1_v2	1170	25	4	7.0647590277918	2	s1_v2 s2_vx s2_v2
26	Male	Enlgish	2.73361666666667	2	s2_v1	s1_v2	sx_vx	s1_v2	17281	0	5	9.75736291105399	1	s2_v1 s1_v2 sx_vx
26	Male	Enlgish	2.73361666666667	2	s1_vx	s2_v1	sx_v2	s2_v1	9159	1	5	9.12249228140299	1	s1_vx s2_v1 sx_v2
26	Male	Enlgish	2.73361666666667	1	s1_v2	s2_vx	sx_v1	s1_v2	7769	2	5	8.95789673495042	1	s1_v2 s2_vx sx_v1
26	Male	Enlgish	2.73361666666667	2	s2_v1	s1_vx	sx_v2	s1_vx	6396	3	5	8.76342807395385	1	s2_v1 s1_vx sx_v2
26	Male	Enlgish	2.73361666666667	3	s2_v2	s1_v2	s2_vx	s2_vx	3224	4	5	8.07837810362652	1	s2_v2 s1_v2 s2_vx
26	Male	Enlgish	2.73361666666667	2	s2_v2	sx_v2	s2_v1	sx_v2	3787	5	5	8.2393294279018	1	s2_v2 sx_v2 s2_v1
26	Male	Enlgish	2.73361666666667	1	sx_v1	s2_v2	s2_v1	sx_v1	6838	6	5	8.83025057019925	1	sx_v1 s2_v2 s2_v1
26	Male	Enlgish	2.73361666666667	3	s1_v1	s2_vx	sx_v2	sx_v2	8951	7	5	9.09952053687094	1	s1_v1 s2_vx sx_v2
26	Male	Enlgish	2.73361666666667	1	s1_vx	s1_v2	s2_v1	s1_vx	3136	8	5	8.0507033814703	1	s1_vx s1_v2 s2_v1
26	Male	Enlgish	2.73361666666667	2	s2_v2	s1_v1	s1_v1	s1_v1	1772	9	5	7.47986413116503	1	s2_v2 s1_v1 s1_v1
26	Male	Enlgish	2.73361666666667	3	sx_vx	s1_v2	s2_v1	s2_v1	5120	10	5	8.54090971803355	1	sx_vx s1_v2 s2_v1
26	Male	Enlgish	2.73361666666667	3	s1_v2	sx_v1	s2_vx	s2_vx	4270	11	5	8.35936910622267	1	s1_v2 sx_v1 s2_vx
26	Male	Enlgish	2.73361666666667	1	s1_v2	s1_vx	s2_v2	s1_v2	3188	12	5	8.06714903991011	1	s1_v2 s1_vx s2_v2
26	Male	Enlgish	2.73361666666667	2	s2_v1	sx_v2	s1_v2	sx_v2	3376	13	5	8.12444685571585	1	s2_v1 sx_v2 s1_v2
26	Male	Enlgish	2.73361666666667	1	s1_vx	s1_v2	s2_v2	s1_vx	3397	14	5	8.13064796816058	2	s1_vx s1_v2 s2_v2
26	Male	Enlgish	2.73361666666667	3	s1_v1	sx_v1	s2_v2	s2_v2	3489	15	5	8.15737044118677	2	s1_v1 sx_v1 s2_v2
26	Male	Enlgish	2.73361666666667	2	s2_v2	s1_v1	sx_v1	s1_v1	2993	16	5	8.0040315078527	2	s2_v2 s1_v1 sx_v1
26	Male	Enlgish	2.73361666666667	1	s1_vx	s2_v2	s1_v1	s1_vx	2890	17	5	7.96901178110648	2	s1_vx s2_v2 s1_v1
26	Male	Enlgish	2.73361666666667	2	s2_vx	s1_v1	sx_v2	s1_v1	3836	18	5	8.25218543600333	2	s2_vx s1_v1 sx_v2
26	Male	Enlgish	2.73361666666667	3	s1_v1	s1_v1	sx_v2	sx_v2	2825	19	5	7.94626364358054	2	s1_v1 s1_v1 sx_v2
26	Male	Enlgish	2.73361666666667	2	s1_v1	s1_vx	s2_v2	s1_vx	3950	20	5	8.28147085789517	2	s1_v1 s1_vx s2_v2
26	Male	Enlgish	2.73361666666667	1	s2_v1	s1_v2	s1_vx	s2_v1	4306	21	5	8.36776467792431	2	s2_v1 s1_v2 s1_vx
26	Male	Enlgish	2.73361666666667	3	s2_v2	sx_v1	s2_v1	s2_v1	2839	22	5	7.95120715647297	2	s2_v2 sx_v1 s2_v1
26	Male	Enlgish	2.73361666666667	1	s2_v1	s2_v1	s1_v2	s2_v1	5139	23	5	8.54461378699223	2	s2_v1 s2_v1 s1_v2
26	Male	Enlgish	2.73361666666667	3	s1_v2	s2_v2	s2_vx	s2_vx	2792	24	5	7.93451346388226	2	s1_v2 s2_v2 s2_vx
26	Male	Enlgish	2.73361666666667	2	sx_v1	s1_v2	s2_v1	s1_v2	2229	25	5	7.70930833338587	2	sx_v1 s1_v2 s2_v1
35	male	English	1.0289	2	s1_v1	sx_v2	s1_v1	sx_v2	7847	0	6	8.96788657212747	1	s1_v1 sx_v2 s1_v1
35	male	English	1.0289	3	s1_vx	s1_v2	s2_v1	s2_v1	6049	1	6	8.70764824810691	1	s1_vx s1_v2 s2_v1
35	male	English	1.0289	1	s2_v1	sx_v2	s1_v2	s2_v1	3921	2	6	8.27410200229233	1	s2_v1 sx_v2 s1_v2
35	male	English	1.0289	2	s1_v1	sx_vx	s2_v2	sx_vx	1989	3	6	7.59538727885397	1	s1_v1 sx_vx s2_v2
35	male	English	1.0289	1	s1_v1	s2_v2	sx_v2	s1_v1	1778	4	6	7.48324441607385	1	s1_v1 s2_v2 sx_v2
35	male	English	1.0289	2	s2_v2	s1_v2	s2_vx	s1_v2	1244	5	6	7.12608727329912	1	s2_v2 s1_v2 s2_vx
35	male	English	1.0289	1	sx_v2	s2_v2	s2_v1	sx_v2	1680	6	6	7.4265490723973	1	sx_v2 s2_v2 s2_v1
35	male	English	1.0289	2	s2_v2	sx_v1	s2_v2	sx_v1	3072	7	6	8.03008409426756	1	s2_v2 sx_v1 s2_v2
35	male	English	1.0289	2	s2_v2	sx_v1	s2_v1	sx_v1	1604	8	6	7.38025578842646	1	s2_v2 sx_v1 s2_v1
35	male	English	1.0289	3	s1_vx	s2_v2	sx_v1	sx_v1	1023	9	6	6.93049476595163	1	s1_vx s2_v2 sx_v1
35	male	English	1.0289	1	s1_vx	s1_v1	s2_v1	s1_vx	1864	10	6	7.53047999524554	1	s1_vx s1_v1 s2_v1
35	male	English	1.0289	1	s1_v1	s1_v2	sx_v2	s1_v1	2013	11	6	7.60738142563979	1	s1_v1 s1_v2 sx_v2
35	male	English	1.0289	2	sx_v1	s1_vx	s2_v2	s1_vx	964	12	6	6.87109129461055	1	sx_v1 s1_vx s2_v2
35	male	English	1.0289	3	sx_v1	s2_v2	s1_vx	s1_vx	903	13	6	6.80572255341699	1	sx_v1 s2_v2 s1_vx
35	male	English	1.0289	2	s1_v2	sx_vx	s2_v1	sx_vx	1320	14	6	7.18538701558042	2	s1_v2 sx_vx s2_v1
35	male	English	1.0289	3	s2_v1	s2_v2	sx_v1	sx_v1	3177	15	6	8.06369263426952	2	s2_v1 s2_v2 sx_v1
35	male	English	1.0289	1	sx_v1	s1_v1	s2_v2	sx_v1	918	16	6	6.82219739062049	2	sx_v1 s1_v1 s2_v2
35	male	English	1.0289	2	s2_v1	s2_vx	s1_v1	s2_vx	1144	17	6	7.04228617193974	2	s2_v1 s2_vx s1_v1
35	male	English	1.0289	2	s2_vx	s1_v2	s2_v1	s1_v2	1080	18	6	6.98471632011827	2	s2_vx s1_v2 s2_v1
35	male	English	1.0289	3	s2_v2	s1_v1	sx_vx	sx_vx	1304	19	6	7.1731917424866	2	s2_v2 s1_v1 sx_vx
35	male	English	1.0289	2	s1_v2	sx_v2	s1_v1	sx_v2	883	20	6	6.78332520060396	2	s1_v2 sx_v2 s1_v1
35	male	English	1.0289	2	s1_v2	s1_v1	sx_v2	s1_v1	1615	21	6	7.38709023565676	2	s1_v2 s1_v1 sx_v2
35	male	English	1.0289	3	s1_v1	s2_v2	sx_v1	sx_v1	1124	22	6	7.02464903045364	2	s1_v1 s2_v2 sx_v1
35	male	English	1.0289	2	s2_v1	sx_v2	s2_v2	sx_v2	948	23	6	6.85435450225502	2	s2_v1 sx_v2 s2_v2
35	male	English	1.0289	1	sx_v2	s2_v1	s2_v2	sx_v2	972	24	6	6.87935580446044	2	sx_v2 s2_v1 s2_v2
35	male	English	1.0289	3	s1_v1	sx_v2	s2_vx	s2_vx	1318	25	6	7.18387071506245	2	s1_v1 sx_v2 s2_vx
36	Male	English	1.19601666666667	1	s1_v1	s2_v2	s2_vx	s1_v1	7050	0	7	8.86078289580631	1	s1_v1 s2_v2 s2_vx
36	Male	English	1.19601666666667	1	sx_v1	s2_v1	s1_v2	sx_v1	8527	1	7	9.05099287874205	1	sx_v1 s2_v1 s1_v2
36	Male	English	1.19601666666667	2	s1_v1	sx_v2	s2_vx	sx_v2	1751	2	7	7.46794233228585	1	s1_v1 sx_v2 s2_vx
36	Male	English	1.19601666666667	3	s2_v2	s2_vx	s1_v1	s1_v1	1840	3	7	7.51752085060303	1	s2_v2 s2_vx s1_v1
36	Male	English	1.19601666666667	1	s1_v2	s2_v2	s2_vx	s1_v2	1326	4	7	7.18992217074581	1	s1_v2 s2_v2 s2_vx
36	Male	English	1.19601666666667	3	s2_v2	s2_v2	s1_v1	s1_v1	1175	5	7	7.06902342657826	1	s2_v2 s2_v2 s1_v1
36	Male	English	1.19601666666667	3	s1_v1	s2_vx	sx_v2	sx_v2	2271	6	7	7.72797554210556	1	s1_v1 s2_vx sx_v2
36	Male	English	1.19601666666667	1	sx_vx	s1_v1	s2_v2	sx_vx	1553	7	7	7.34794382314869	1	sx_vx s1_v1 s2_v2
36	Male	English	1.19601666666667	3	s2_v2	s1_v1	sx_vx	sx_vx	1448	8	7	7.27793857294566	1	s2_v2 s1_v1 sx_vx
36	Male	English	1.19601666666667	3	s2_v2	s2_v2	sx_v1	sx_v1	1976	9	7	7.58882987830781	1	s2_v2 s2_v2 sx_v1
36	Male	English	1.19601666666667	2	s2_vx	s1_v2	s2_v1	s1_v2	1513	10	7	7.32184971378836	1	s2_vx s1_v2 s2_v1
36	Male	English	1.19601666666667	2	s1_v2	sx_v1	s1_v2	sx_v1	1039	11	7	6.94601399109923	1	s1_v2 sx_v1 s1_v2
36	Male	English	1.19601666666667	2	s2_vx	s1_v1	s2_v1	s1_v1	1088	12	7	6.99209642741589	1	s2_vx s1_v1 s2_v1
36	Male	English	1.19601666666667	3	s1_v1	s2_v2	sx_vx	sx_vx	1816	13	7	7.50439155916124	1	s1_v1 s2_v2 sx_vx
36	Male	English	1.19601666666667	3	s1_vx	s1_v2	s2_v1	s2_v1	1191	14	7	7.0825485693553	2	s1_vx s1_v2 s2_v1
36	Male	English	1.19601666666667	1	sx_v1	s1_v2	s1_v2	sx_v1	1008	15	7	6.91572344863131	2	sx_v1 s1_v2 s1_v2
36	Male	English	1.19601666666667	2	s2_v1	sx_v1	s1_v2	sx_v1	1384	16	7	7.23273313617761	2	s2_v1 sx_v1 s1_v2
36	Male	English	1.19601666666667	3	s1_v2	s2_v1	sx_v1	sx_v1	944	17	7	6.8501261661455	2	s1_v2 s2_v1 sx_v1
36	Male	English	1.19601666666667	2	s2_vx	sx_v1	s1_v2	sx_v1	1319	18	7	7.18462915271731	2	s2_vx sx_v1 s1_v2
36	Male	English	1.19601666666667	1	sx_v2	s1_v1	s1_v2	sx_v2	1121	19	7	7.02197642307216	2	sx_v2 s1_v1 s1_v2
36	Male	English	1.19601666666667	2	s1_v2	s2_v1	s1_vx	s2_v1	984	20	7	6.89162589705225	2	s1_v2 s2_v1 s1_vx
36	Male	English	1.19601666666667	1	sx_v1	s2_v2	s1_vx	sx_v1	1000	21	7	6.90775527898214	2	sx_v1 s2_v2 s1_vx
36	Male	English	1.19601666666667	3	s1_vx	s1_v2	s2_v2	s2_v2	1055	22	7	6.96129604591017	2	s1_vx s1_v2 s2_v2
36	Male	English	1.19601666666667	1	sx_v2	s2_v1	s2_v1	sx_v2	944	23	7	6.8501261661455	2	sx_v2 s2_v1 s2_v1
36	Male	English	1.19601666666667	1	sx_vx	s1_v2	s2_v1	sx_vx	1336	24	7	7.19743535409659	2	sx_vx s1_v2 s2_v1
36	Male	English	1.19601666666667	3	s2_vx	s1_v1	sx_v2	sx_v2	824	25	7	6.71417052990947	2	s2_vx s1_v1 sx_v2
26	female	English	1.27155	2	s1_vx	s1_v1	s2_v2	s1_v1	14961	0	8	9.61320209421423	1	s1_vx s1_v1 s2_v2
26	female	English	1.27155	2	s1_vx	s2_v1	sx_v2	s2_v1	6662	1	8	8.80417501875363	1	s1_vx s2_v1 sx_v2
26	female	English	1.27155	1	sx_v2	s2_v2	s1_v1	sx_v2	2777	2	8	7.9291264873068	1	sx_v2 s2_v2 s1_v1
26	female	English	1.27155	3	s2_v2	s2_v1	sx_v2	sx_v2	2304	3	8	7.74240202181578	1	s2_v2 s2_v1 sx_v2
26	female	English	1.27155	2	sx_v2	s2_v1	s2_v2	s2_v1	2087	4	8	7.6434829070772	1	sx_v2 s2_v1 s2_v2
26	female	English	1.27155	2	s2_v2	s2_vx	s1_v1	s2_vx	3903	5	8	8.26950076718061	1	s2_v2 s2_vx s1_v1
26	female	English	1.27155	2	s2_v1	s1_v2	s1_v2	s1_v2	1249	6	8	7.13009851012558	1	s2_v1 s1_v2 s1_v2
26	female	English	1.27155	1	sx_v1	s2_v2	s1_v1	sx_v1	1790	7	8	7.4899708988348	1	sx_v1 s2_v2 s1_v1
26	female	English	1.27155	1	s1_v2	s2_v1	s2_vx	s1_v2	1295	8	8	7.16626597413364	1	s1_v2 s2_v1 s2_vx
26	female	English	1.27155	3	sx_vx	s2_v1	s1_v2	s1_v2	1016	9	8	6.92362862813843	1	sx_vx s2_v1 s1_v2
26	female	English	1.27155	3	s1_vx	s1_v2	s2_v1	s2_v1	1276	10	8	7.15148546390474	1	s1_vx s1_v2 s2_v1
26	female	English	1.27155	2	s1_v2	s2_v1	s2_v1	s2_v1	860	11	8	6.75693238924755	1	s1_v2 s2_v1 s2_v1
26	female	English	1.27155	1	s2_vx	s1_v2	s2_v2	s2_vx	1287	12	8	7.16006920759613	1	s2_vx s1_v2 s2_v2
26	female	English	1.27155	3	s1_v2	s2_v1	sx_vx	sx_vx	2304	13	8	7.74240202181578	1	s1_v2 s2_v1 sx_vx
26	female	English	1.27155	2	s2_v1	s1_v2	s2_vx	s1_v2	2048	14	8	7.6246189861594	2	s2_v1 s1_v2 s2_vx
26	female	English	1.27155	2	s2_v2	sx_v2	s1_v1	sx_v2	728	15	8	6.59030104819669	2	s2_v2 sx_v2 s1_v1
26	female	English	1.27155	2	s2_vx	s2_v1	s1_v1	s2_v1	1312	16	8	7.17930796950403	2	s2_vx s2_v1 s1_v1
26	female	English	1.27155	3	s2_v1	s1_vx	s1_v2	s1_v2	1522	17	8	7.32778053842163	2	s2_v1 s1_vx s1_v2
26	female	English	1.27155	2	sx_v2	s2_v2	s2_v1	s2_v2	734	18	8	6.59850902861452	2	sx_v2 s2_v2 s2_v1
26	female	English	1.27155	3	s1_v2	s1_vx	s2_v1	s2_v1	1080	19	8	6.98471632011827	2	s1_v2 s1_vx s2_v1
26	female	English	1.27155	2	s1_v1	s1_v2	sx_v2	s1_v2	839	20	8	6.73221070646721	2	s1_v1 s1_v2 sx_v2
26	female	English	1.27155	3	s2_vx	s1_v2	s2_v1	s2_v1	1087	21	8	6.99117688712121	2	s2_vx s1_v2 s2_v1
26	female	English	1.27155	2	s2_v2	sx_v1	s1_v1	sx_v1	1016	22	8	6.92362862813843	2	s2_v2 sx_v1 s1_v1
26	female	English	1.27155	1	s1_v1	s1_v2	sx_v1	s1_v1	746	23	8	6.61472560020376	2	s1_v1 s1_v2 sx_v1
26	female	English	1.27155	2	s1_v1	s2_vx	sx_v2	s2_vx	679	24	8	6.5206211275587	2	s1_v1 s2_vx sx_v2
26	female	English	1.27155	1	s1_v2	sx_v1	s1_v2	s1_v2	1671	25	8	7.42117752859539	2	s1_v2 sx_v1 s1_v2
25	female	English	1.42686666666667	1	s1_v1	s2_v2	sx_v2	s1_v1	21172	0	9	9.96043483297788	1	s1_v1 s2_v2 sx_v2
25	female	English	1.42686666666667	2	s2_v2	s1_vx	s1_v2	s1_vx	295	1	9	5.68697535633982	1	s2_v2 s1_vx s1_v2
25	female	English	1.42686666666667	3	s2_vx	s1_v1	s2_v2	s2_v2	236	2	9	5.46383180502561	1	s2_vx s1_v1 s2_v2
25	female	English	1.42686666666667	2	s1_v1	s2_vx	s2_v2	s2_vx	6623	3	9	8.79830371848498	1	s1_v1 s2_vx s2_v2
25	female	English	1.42686666666667	1	s2_v2	sx_v2	s2_v1	s2_v2	8307	4	9	9.02485381183907	1	s2_v2 sx_v2 s2_v1
25	female	English	1.42686666666667	2	sx_vx	s1_v2	s2_v1	s1_v2	1440	5	9	7.27239839257005	1	sx_vx s1_v2 s2_v1
25	female	English	1.42686666666667	2	s1_v1	s2_v1	s1_vx	s2_v1	1095	6	9	6.9985096422506	1	s1_v1 s2_v1 s1_vx
25	female	English	1.42686666666667	1	s2_v2	s2_v1	sx_v2	s2_v2	986	7	9	6.89365635460264	1	s2_v2 s2_v1 sx_v2
25	female	English	1.42686666666667	2	s1_vx	s1_v2	s2_v1	s1_v2	699	8	9	6.54965074223381	1	s1_vx s1_v2 s2_v1
25	female	English	1.42686666666667	3	s1_v1	sx_v1	s2_v2	s2_v2	1026	9	9	6.93342302573071	1	s1_v1 sx_v1 s2_v2
25	female	English	1.42686666666667	3	s1_v1	s2_vx	s2_v1	s2_v1	1834	10	9	7.51425465281641	1	s1_v1 s2_vx s2_v1
25	female	English	1.42686666666667	3	s2_v1	s1_vx	sx_v2	sx_v2	1187	11	9	7.07918439460967	1	s2_v1 s1_vx sx_v2
25	female	English	1.42686666666667	2	s1_vx	s1_v1	s2_v1	s1_v1	1034	12	9	6.94119005506837	1	s1_vx s1_v1 s2_v1
25	female	English	1.42686666666667	2	s1_v1	s2_v2	s2_v2	s2_v2	629	13	9	6.44413125670044	1	s1_v1 s2_v2 s2_v2
25	female	English	1.42686666666667	2	sx_v2	s1_v2	s2_v1	s1_v2	713	14	9	6.5694814204143	2	sx_v2 s1_v2 s2_v1
25	female	English	1.42686666666667	2	s2_v1	s1_v2	sx_v1	s1_v2	977	15	9	6.88448665204278	2	s2_v1 s1_v2 sx_v1
25	female	English	1.42686666666667	3	s1_v1	s1_v1	s2_v2	s2_v2	1233	16	9	7.11720550316434	2	s1_v1 s1_v1 s2_v2
25	female	English	1.42686666666667	2	s1_vx	s1_v2	s2_v2	s1_v2	1271	17	9	7.14755927118945	2	s1_vx s1_v2 s2_v2
25	female	English	1.42686666666667	1	s2_v2	s1_v1	sx_v2	s2_v2	616	18	9	6.42324696353352	2	s2_v2 s1_v1 sx_v2
25	female	English	1.42686666666667	2	s2_v1	sx_v2	s2_v1	sx_v2	1912	19	9	7.55590509361135	2	s2_v1 sx_v2 s2_v1
25	female	English	1.42686666666667	1	s1_v2	s2_vx	sx_v1	s1_v2	778	20	9	6.65672652417839	2	s1_v2 s2_vx sx_v1
25	female	English	1.42686666666667	2	s1_vx	s2_v2	s1_v2	s2_v2	770	21	9	6.64639051484773	2	s1_vx s2_v2 s1_v2
25	female	English	1.42686666666667	1	s1_v2	s2_vx	s2_v1	s1_v2	602	22	9	6.40025744530882	2	s1_v2 s2_vx s2_v1
25	female	English	1.42686666666667	1	s2_v2	s1_v1	sx_v1	s2_v2	694	23	9	6.5424719605068	2	s2_v2 s1_v1 sx_v1
25	female	English	1.42686666666667	2	s2_v1	s1_v1	s1_vx	s1_v1	1486	24	9	7.3038432252777	2	s2_v1 s1_v1 s1_vx
25	female	English	1.42686666666667	1	s1_v2	s2_v1	s2_v1	s1_v2	12387	25	9	9.4244028145542	2	s1_v2 s2_v1 s2_v1
25	male	english	2.20776666666667	1	sx_v2	s2_v1	s1_vx	sx_v2	72549	0	10	11.1920174746198	1	sx_v2 s2_v1 s1_vx
25	male	english	2.20776666666667	3	s1_vx	sx_v1	s2_v2	s2_v2	3272	1	10	8.09315669772264	1	s1_vx sx_v1 s2_v2
25	male	english	2.20776666666667	1	sx_v2	s2_v1	s1_v2	sx_v2	1303	2	10	7.17242457712485	1	sx_v2 s2_v1 s1_v2
25	male	english	2.20776666666667	3	s1_v2	s1_v1	sx_v2	sx_v2	921	3	10	6.82546003625531	1	s1_v2 s1_v1 sx_v2
25	male	english	2.20776666666667	1	sx_v2	s1_v1	s1_v2	sx_v2	815	4	10	6.70318811324086	1	sx_v2 s1_v1 s1_v2
25	male	english	2.20776666666667	2	s1_vx	s2_v2	sx_v1	s2_v2	820	5	10	6.7093043402583	1	s1_vx s2_v2 sx_v1
25	male	english	2.20776666666667	2	s2_vx	s1_v2	s2_v1	s1_v2	602	6	10	6.40025744530882	1	s2_vx s1_v2 s2_v1
25	male	english	2.20776666666667	3	s1_v2	sx_v1	s1_v2	s1_v2	873	7	10	6.7719355558396	1	s1_v2 sx_v1 s1_v2
25	male	english	2.20776666666667	3	s2_v2	sx_v1	s2_v2	s2_v2	547	8	10	6.30444880242198	1	s2_v2 sx_v1 s2_v2
25	male	english	2.20776666666667	2	s1_v2	sx_v2	s1_v1	sx_v2	702	9	10	6.55393340402581	1	s1_v2 sx_v2 s1_v1
25	male	english	2.20776666666667	3	s1_vx	s2_v2	s1_v2	s1_v2	1127	10	10	7.02731451403978	1	s1_vx s2_v2 s1_v2
25	male	english	2.20776666666667	1	s1_v2	sx_vx	s2_v1	s1_v2	1553	11	10	7.34794382314869	1	s1_v2 sx_vx s2_v1
25	male	english	2.20776666666667	1	s1_v2	s1_vx	s2_v1	s1_v2	726	12	10	6.5875500148248	1	s1_v2 s1_vx s2_v1
25	male	english	2.20776666666667	3	s2_vx	s1_v1	sx_v2	sx_v2	875	13	10	6.77422388635761	1	s2_vx s1_v1 sx_v2
25	male	english	2.20776666666667	2	s2_v1	sx_v2	s2_v2	sx_v2	907	14	10	6.81014245011514	2	s2_v1 sx_v2 s2_v2
25	male	english	2.20776666666667	1	s2_v2	s1_v1	sx_vx	s2_v2	710	15	10	6.56526497003536	2	s2_v2 s1_v1 sx_vx
25	male	english	2.20776666666667	3	s2_v1	s1_vx	s1_v2	s1_v2	1132	16	10	7.03174125876313	2	s2_v1 s1_vx s1_v2
25	male	english	2.20776666666667	2	s2_v1	s1_v2	sx_v2	s1_v2	690	17	10	6.5366915975913	2	s2_v1 s1_v2 sx_v2
25	male	english	2.20776666666667	2	s2_v1	s1_v2	s1_vx	s1_v2	1161	18	10	7.05703698169789	2	s2_v1 s1_v2 s1_vx
25	male	english	2.20776666666667	2	s2_v1	s1_v2	sx_vx	s1_v2	485	19	10	6.18414889093748	2	s2_v1 s1_v2 sx_vx
25	male	english	2.20776666666667	2	s2_v2	s1_v2	s1_vx	s1_v2	1328	20	10	7.19142933003638	2	s2_v2 s1_v2 s1_vx
25	male	english	2.20776666666667	2	s2_vx	s2_v2	s1_v1	s2_v2	587	21	10	6.3750248198281	2	s2_vx s2_v2 s1_v1
25	male	english	2.20776666666667	2	s1_v1	s2_v2	s1_v1	s2_v2	483	22	10	6.18001665365257	2	s1_v1 s2_v2 s1_v1
25	male	english	2.20776666666667	3	s1_vx	s1_v1	s2_v2	s2_v2	1103	23	10	7.0057890192535	2	s1_vx s1_v1 s2_v2
25	male	english	2.20776666666667	3	sx_v1	s1_v1	s2_v2	s2_v2	483	24	10	6.18001665365257	2	sx_v1 s1_v1 s2_v2
25	male	english	2.20776666666667	1	s2_v2	s2_v1	sx_v2	s2_v2	1203	25	10	7.09257371597468	2	s2_v2 s2_v1 sx_v2
25	Male	English	1.21578333333333	3	s1_vx	s2_v2	s1_v1	s1_v1	7116	0	11	8.87010104878573	1	s1_vx s2_v2 s1_v1
25	Male	English	1.21578333333333	2	s1_v1	sx_v1	s2_v2	sx_v1	6642	1	11	8.80116840193669	1	s1_v1 sx_v1 s2_v2
25	Male	English	1.21578333333333	1	s2_v1	s2_v2	sx_v2	s2_v1	1750	2	11	7.46737106691756	1	s2_v1 s2_v2 sx_v2
25	Male	English	1.21578333333333	1	s1_vx	s1_v2	s2_v2	s1_vx	8270	3	11	9.02038978801774	1	s1_vx s1_v2 s2_v2
25	Male	English	1.21578333333333	3	s2_vx	sx_v2	s1_v1	s1_v1	8120	4	11	9.00208543315572	1	s2_vx sx_v2 s1_v1
25	Male	English	1.21578333333333	2	sx_v2	s1_v1	s2_v2	s1_v1	1310	5	11	7.1777824161952	1	sx_v2 s1_v1 s2_v2
25	Male	English	1.21578333333333	3	s1_vx	s2_v1	s1_v1	s1_v1	1320	6	11	7.18538701558042	1	s1_vx s2_v1 s1_v1
25	Male	English	1.21578333333333	3	s2_v2	sx_v1	s2_v1	s2_v1	2122	7	11	7.66011431917393	1	s2_v2 sx_v1 s2_v1
25	Male	English	1.21578333333333	2	s2_vx	s1_v2	s2_v2	s1_v2	1548	8	11	7.34471905414967	1	s2_vx s1_v2 s2_v2
25	Male	English	1.21578333333333	2	s1_v2	s2_v2	s2_vx	s2_v2	1194	9	11	7.08506429395255	1	s1_v2 s2_v2 s2_vx
25	Male	English	1.21578333333333	2	s2_v2	s2_v2	sx_v1	s2_v2	791	10	11	6.67329796776765	1	s2_v2 s2_v2 sx_v1
25	Male	English	1.21578333333333	2	s1_v1	s2_v2	s1_vx	s2_v2	1425	11	11	7.26192709270275	1	s1_v1 s2_v2 s1_vx
25	Male	English	1.21578333333333	3	s2_v2	s2_v2	s1_v1	s1_v1	1334	12	11	7.19593722647557	1	s2_v2 s2_v2 s1_v1
25	Male	English	1.21578333333333	3	s1_v2	s1_v2	s2_v1	s2_v1	1495	13	11	7.30988148582479	1	s1_v2 s1_v2 s2_v1
25	Male	English	1.21578333333333	1	s1_v1	sx_v2	s2_v2	s1_v1	977	14	11	6.88448665204278	2	s1_v1 sx_v2 s2_v2
25	Male	English	1.21578333333333	1	s2_v1	s2_v2	sx_v1	s2_v1	2303	15	11	7.74196789982069	2	s2_v1 s2_v2 sx_v1
25	Male	English	1.21578333333333	2	sx_v2	s2_v1	s1_vx	s2_v1	863	16	11	6.76041469108343	2	sx_v2 s2_v1 s1_vx
25	Male	English	1.21578333333333	2	s1_vx	s1_v1	s2_v2	s1_v1	1604	17	11	7.38025578842646	2	s1_vx s1_v1 s2_v2
25	Male	English	1.21578333333333	2	sx_v2	s2_v1	s2_v2	s2_v1	703	18	11	6.55535689181067	2	sx_v2 s2_v1 s2_v2
25	Male	English	1.21578333333333	3	s1_vx	sx_v2	s2_v1	s2_v1	874	19	11	6.77308037565554	2	s1_vx sx_v2 s2_v1
25	Male	English	1.21578333333333	1	s2_v1	sx_v2	s1_v2	s2_v1	1015	20	11	6.92264389147589	2	s2_v1 sx_v2 s1_v2
25	Male	English	1.21578333333333	3	s1_v1	s2_vx	s2_v1	s2_v1	2815	21	11	7.94271754057379	2	s1_v1 s2_vx s2_v1
25	Male	English	1.21578333333333	2	s1_v1	s1_v1	sx_v2	s1_v1	948	22	11	6.85435450225502	2	s1_v1 s1_v1 sx_v2
25	Male	English	1.21578333333333	3	sx_v2	s1_v2	s1_v1	s1_v1	739	23	11	6.6052979209482	2	sx_v2 s1_v2 s1_v1
25	Male	English	1.21578333333333	1	s2_v1	sx_vx	s1_v2	s2_v1	1048	24	11	6.95463886488099	2	s2_v1 sx_vx s1_v2
25	Male	English	1.21578333333333	1	s1_v1	s2_v2	sx_v1	s1_v1	1337	25	11	7.19818357710194	2	s1_v1 s2_v2 sx_v1
22	male	english	1.08346666666667	1	s2_v1	sx_v1	s1_v2	s2_v1	6555	0	12	8.7879833961978	1	s2_v1 sx_v1 s1_v2
22	male	english	1.08346666666667	3	s1_v2	s2_v1	sx_v2	sx_v2	18803	1	12	9.84177171055548	1	s1_v2 s2_v1 sx_v2
22	male	english	1.08346666666667	1	s2_v1	s2_vx	s1_v1	s2_v1	3638	2	12	8.19918935907807	1	s2_v1 s2_vx s1_v1
22	male	english	1.08346666666667	1	sx_v2	s2_vx	s1_v1	sx_v2	927	3	12	6.83195356556585	1	sx_v2 s2_vx s1_v1
22	male	english	1.08346666666667	2	s2_v1	s1_v2	s1_vx	s1_v2	1617	4	12	7.38832785957711	1	s2_v1 s1_v2 s1_vx
22	male	english	1.08346666666667	1	s2_v2	s2_v1	sx_v1	s2_v2	681	5	12	6.52356230614951	1	s2_v2 s2_v1 sx_v1
22	male	english	1.08346666666667	1	s2_v2	s2_vx	s1_v1	s2_v2	695	6	12	6.54391184556479	1	s2_v2 s2_vx s1_v1
22	male	english	1.08346666666667	1	sx_v2	s1_v1	s1_v2	sx_v2	1168	7	12	7.06304816338817	1	sx_v2 s1_v1 s1_v2
22	male	english	1.08346666666667	1	s2_v2	s1_v1	sx_vx	s2_v2	640	8	12	6.46146817635372	1	s2_v2 s1_v1 sx_vx
22	male	english	1.08346666666667	3	sx_v1	s1_vx	s2_v2	s2_v2	785	9	12	6.66568371778241	1	sx_v1 s1_vx s2_v2
22	male	english	1.08346666666667	2	s1_vx	s1_v2	s2_v1	s1_v2	663	10	12	6.49677499018586	1	s1_vx s1_v2 s2_v1
22	male	english	1.08346666666667	2	s1_v1	sx_v2	s2_v2	sx_v2	808	11	12	6.69456205852109	1	s1_v1 sx_v2 s2_v2
22	male	english	1.08346666666667	2	s1_v1	s2_v2	s2_v2	s2_v2	1000	12	12	6.90775527898214	1	s1_v1 s2_v2 s2_v2
22	male	english	1.08346666666667	1	s1_v2	s1_vx	s2_v2	s1_v2	808	13	12	6.69456205852109	1	s1_v2 s1_vx s2_v2
22	male	english	1.08346666666667	3	s2_vx	s2_v1	s1_v2	s1_v2	927	14	12	6.83195356556585	2	s2_vx s2_v1 s1_v2
22	male	english	1.08346666666667	1	s1_v2	s2_v1	sx_vx	s1_v2	728	15	12	6.59030104819669	2	s1_v2 s2_v1 sx_vx
22	male	english	1.08346666666667	3	s1_vx	s1_v1	s2_v2	s2_v2	815	16	12	6.70318811324086	2	s1_vx s1_v1 s2_v2
22	male	english	1.08346666666667	2	sx_v1	s1_v2	s2_v1	s1_v2	593	17	12	6.38519439899773	2	sx_v1 s1_v2 s2_v1
22	male	english	1.08346666666667	2	s1_v2	s1_v2	s2_v1	s1_v2	780	18	12	6.65929391968364	2	s1_v2 s1_v2 s2_v1
22	male	english	1.08346666666667	2	s2_vx	s1_v2	s2_v1	s1_v2	443	19	12	6.09356977004514	2	s2_vx s1_v2 s2_v1
22	male	english	1.08346666666667	2	s1_vx	sx_v2	s2_v1	sx_v2	584	20	12	6.36990098282823	2	s1_vx sx_v2 s2_v1
22	male	english	1.08346666666667	1	s2_v2	s1_v1	s1_v1	s2_v2	640	21	12	6.46146817635372	2	s2_v2 s1_v1 s1_v1
22	male	english	1.08346666666667	1	s2_v2	s1_v1	s1_vx	s2_v2	472	22	12	6.15697898558556	2	s2_v2 s1_v1 s1_vx
22	male	english	1.08346666666667	1	s1_v2	s2_vx	sx_v1	s1_v2	385	23	12	5.95324333428778	2	s1_v2 s2_vx sx_v1
22	male	english	1.08346666666667	1	s2_v2	sx_v2	s1_v1	s2_v2	399	24	12	5.98896141688986	2	s2_v2 sx_v2 s1_v1
22	male	english	1.08346666666667	2	sx_v1	s2_v2	s2_v1	s2_v2	480	25	12	6.17378610390194	2	sx_v1 s2_v2 s2_v1
33	Male	English	1.0963	3	s2_v2	s1_v1	s2_v2	s2_v2	4892	0	13	8.49535649680706	1	s2_v2 s1_v1 s2_v2
33	Male	English	1.0963	1	s1_v1	sx_v1	s1_v2	s1_v1	5495	1	13	8.61159386683772	1	s1_v1 sx_v1 s1_v2
33	Male	English	1.0963	2	s1_v1	s1_vx	s2_v1	s1_vx	1477	2	13	7.29776828253138	1	s1_v1 s1_vx s2_v1
33	Male	English	1.0963	3	s1_v2	s2_v1	s1_vx	s1_vx	1278	3	13	7.15305163493748	1	s1_v2 s2_v1 s1_vx
33	Male	English	1.0963	3	s1_v2	sx_v1	s2_vx	s2_vx	2151	4	13	7.67368812926773	1	s1_v2 sx_v1 s2_vx
33	Male	English	1.0963	2	s1_v1	s2_v2	sx_vx	s2_v2	1799	5	13	7.49498623395053	1	s1_v1 s2_v2 sx_vx
33	Male	English	1.0963	3	sx_v1	s2_v2	s1_vx	s1_vx	760	6	13	6.63331843328038	1	sx_v1 s2_v2 s1_vx
33	Male	English	1.0963	2	sx_v2	s1_vx	s2_v1	s1_vx	1103	7	13	7.0057890192535	1	sx_v2 s1_vx s2_v1
33	Male	English	1.0963	1	s1_vx	sx_v2	s2_v1	s1_vx	624	8	13	6.43615036836943	1	s1_vx sx_v2 s2_v1
33	Male	English	1.0963	3	s1_v1	s2_vx	sx_v2	sx_v2	824	9	13	6.71417052990947	1	s1_v1 s2_vx sx_v2
33	Male	English	1.0963	1	s2_vx	s2_v1	s1_v1	s2_vx	1648	10	13	7.40731771046942	1	s2_vx s2_v1 s1_v1
33	Male	English	1.0963	2	s1_v1	s2_vx	s2_v2	s2_vx	696	11	13	6.54534966033442	1	s1_v1 s2_vx s2_v2
33	Male	English	1.0963	3	s2_vx	s1_v1	sx_v2	sx_v2	1047	12	13	6.95368421087054	1	s2_vx s1_v1 sx_v2
33	Male	English	1.0963	3	s1_v2	sx_v2	s1_v1	s1_v1	904	13	13	6.80682936039218	1	s1_v2 sx_v2 s1_v1
33	Male	English	1.0963	1	s1_vx	s2_v1	sx_v2	s1_vx	928	14	13	6.8330317327862	2	s1_vx s2_v1 sx_v2
33	Male	English	1.0963	3	sx_v1	s1_v1	s2_v2	s2_v2	1552	15	13	7.34729970074316	2	sx_v1 s1_v1 s2_v2
33	Male	English	1.0963	3	s1_v1	s2_v2	s2_vx	s2_vx	1456	16	13	7.28344822875663	2	s1_v1 s2_v2 s2_vx
33	Male	English	1.0963	2	s1_v2	s1_vx	s2_v1	s1_vx	1336	17	13	7.19743535409659	2	s1_v2 s1_vx s2_v1
33	Male	English	1.0963	2	s2_v1	s2_vx	s1_v2	s2_vx	616	18	13	6.42324696353352	2	s2_v1 s2_vx s1_v2
33	Male	English	1.0963	1	s1_vx	s2_v2	s1_v2	s1_vx	784	19	13	6.66440902035041	2	s1_vx s2_v2 s1_v2
33	Male	English	1.0963	2	s2_v1	s1_v2	s2_v1	s1_v2	1279	20	13	7.15383380157884	2	s2_v1 s1_v2 s2_v1
33	Male	English	1.0963	1	s2_v2	s1_v1	s1_v1	s2_v2	864	21	13	6.76157276880406	2	s2_v2 s1_v1 s1_v1
33	Male	English	1.0963	3	s2_v1	s2_v1	sx_v2	sx_v2	831	22	13	6.72262979485545	2	s2_v1 s2_v1 sx_v2
33	Male	English	1.0963	3	s2_v1	sx_v1	s1_v2	s1_v2	695	23	13	6.54391184556479	2	s2_v1 sx_v1 s1_v2
33	Male	English	1.0963	2	s2_v2	sx_v1	s2_v2	sx_v1	1440	24	13	7.27239839257005	2	s2_v2 sx_v1 s2_v2
33	Male	English	1.0963	1	sx_vx	s2_v2	s1_v1	sx_vx	1463	25	13	7.28824440102012	2	sx_vx s2_v2 s1_v1
38	male	english	0.960233333333333	3	s2_v1	s2_v2	sx_v2	sx_v2	9748	0	14	9.1848174147451	1	s2_v1 s2_v2 sx_v2
38	male	english	0.960233333333333	2	s2_v1	s1_vx	sx_v2	s1_vx	9041	1	14	9.10952506673737	1	s2_v1 s1_vx sx_v2
38	male	english	0.960233333333333	3	sx_vx	s2_v1	s1_v2	s1_v2	2219	2	14	7.70481192293259	1	sx_vx s2_v1 s1_v2
38	male	english	0.960233333333333	2	sx_v1	s1_v1	s1_v2	s1_v1	849	3	14	6.74405918631135	1	sx_v1 s1_v1 s1_v2
38	male	english	0.960233333333333	1	sx_v1	s1_v2	s2_v1	sx_v1	718	4	14	6.57646956904822	1	sx_v1 s1_v2 s2_v1
38	male	english	0.960233333333333	2	s1_v2	s1_vx	s2_v2	s1_vx	947	5	14	6.85329909318608	1	s1_v2 s1_vx s2_v2
38	male	english	0.960233333333333	3	s1_v2	s1_vx	s2_v1	s2_v1	740	6	14	6.60665018619822	1	s1_v2 s1_vx s2_v1
38	male	english	0.960233333333333	3	s2_vx	s1_v1	s2_v2	s2_v2	676	7	14	6.51619307604296	1	s2_vx s1_v1 s2_v2
38	male	english	0.960233333333333	3	s2_vx	s1_v1	sx_v2	sx_v2	823	8	14	6.71295620067707	1	s2_vx s1_v1 sx_v2
38	male	english	0.960233333333333	2	sx_v1	s2_v2	s2_v2	s2_v2	709	9	14	6.56385552653213	1	sx_v1 s2_v2 s2_v2
38	male	english	0.960233333333333	3	s2_v1	sx_vx	s1_v2	s1_v2	989	10	14	6.89669433162271	1	s2_v1 sx_vx s1_v2
38	male	english	0.960233333333333	2	sx_v2	s2_v2	s2_v1	s2_v2	788	11	14	6.66949808985788	1	sx_v2 s2_v2 s2_v1
38	male	english	0.960233333333333	2	s1_v2	s1_v2	sx_v1	s1_v2	728	12	14	6.59030104819669	1	s1_v2 s1_v2 sx_v1
38	male	english	0.960233333333333	3	s1_v1	s2_v2	sx_v2	sx_v2	891	13	14	6.79234442747081	1	s1_v1 s2_v2 sx_v2
38	male	english	0.960233333333333	2	s1_v2	s2_vx	sx_v1	s2_vx	773	14	14	6.65027904858742	2	s1_v2 s2_vx sx_v1
38	male	english	0.960233333333333	1	s2_vx	s2_v1	s1_v1	s2_vx	728	15	14	6.59030104819669	2	s2_vx s2_v1 s1_v1
38	male	english	0.960233333333333	2	s1_v2	s2_vx	s2_v1	s2_vx	588	16	14	6.37672694789863	2	s1_v2 s2_vx s2_v1
38	male	english	0.960233333333333	3	s1_v1	s2_v1	s1_vx	s1_vx	661	17	14	6.49375383985169	2	s1_v1 s2_v1 s1_vx
38	male	english	0.960233333333333	2	s1_v1	s2_v2	s1_vx	s2_v2	636	18	14	6.45519856334012	2	s1_v1 s2_v2 s1_vx
38	male	english	0.960233333333333	1	s2_v2	s2_v1	sx_v2	s2_v2	747	19	14	6.61606518513282	2	s2_v2 s2_v1 sx_v2
38	male	english	0.960233333333333	2	s2_v2	s1_v1	s1_v1	s1_v1	636	20	14	6.45519856334012	2	s2_v2 s1_v1 s1_v1
38	male	english	0.960233333333333	2	s2_v1	sx_v1	s1_v2	sx_v1	704	21	14	6.55677835615804	2	s2_v1 sx_v1 s1_v2
38	male	english	0.960233333333333	2	s1_vx	s2_v2	s1_v2	s2_v2	574	22	14	6.35262939631957	2	s1_vx s2_v2 s1_v2
38	male	english	0.960233333333333	2	s1_v2	s2_v1	sx_vx	s2_v1	521	23	14	6.25575004175337	2	s1_v2 s2_v1 sx_vx
38	male	english	0.960233333333333	2	s1_vx	s1_v1	s2_v2	s1_v1	701	24	14	6.55250788703459	2	s1_vx s1_v1 s2_v2
38	male	english	0.960233333333333	1	s1_v1	sx_v1	s2_v2	s1_v1	1030	25	14	6.93731408122368	2	s1_v1 sx_v1 s2_v2
26	Male	English	1.25991666666667	2	s2_v2	sx_v1	s2_v2	sx_v1	15380	0	15	9.64082324305964	1	s2_v2 sx_v1 s2_v2
26	Male	English	1.25991666666667	1	sx_v2	s2_v1	s1_vx	sx_v2	5231	1	15	8.56235774337061	1	sx_v2 s2_v1 s1_vx
26	Male	English	1.25991666666667	2	s1_v2	sx_vx	s2_v1	sx_vx	2379	2	15	7.77443551030296	1	s1_v2 sx_vx s2_v1
26	Male	English	1.25991666666667	1	sx_vx	s1_v2	s2_v1	sx_vx	1628	3	15	7.39510754656249	1	sx_vx s1_v2 s2_v1
26	Male	English	1.25991666666667	3	s1_v1	s2_v2	sx_v1	sx_v1	2079	4	15	7.63964228785801	1	s1_v1 s2_v2 sx_v1
26	Male	English	1.25991666666667	1	sx_v2	s2_v2	s1_v1	sx_v2	1712	5	15	7.44541755670169	1	sx_v2 s2_v2 s1_v1
26	Male	English	1.25991666666667	1	s2_v1	s1_vx	s1_v1	s2_v1	2143	6	15	7.66996199547358	1	s2_v1 s1_vx s1_v1
26	Male	English	1.25991666666667	3	s2_v2	s2_v2	s1_v1	s1_v1	1401	7	15	7.24494154633701	1	s2_v2 s2_v2 s1_v1
26	Male	English	1.25991666666667	2	s1_v1	sx_v2	s2_vx	sx_v2	1739	8	15	7.46106551435428	1	s1_v1 sx_v2 s2_vx
26	Male	English	1.25991666666667	3	s2_vx	s2_v1	s1_v2	s1_v2	1250	9	15	7.13089883029635	1	s2_vx s2_v1 s1_v2
26	Male	English	1.25991666666667	1	sx_v1	s2_v2	s2_v2	sx_v1	1174	10	15	7.06817200038804	1	sx_v1 s2_v2 s2_v2
26	Male	English	1.25991666666667	2	s1_v2	sx_v1	s1_v1	sx_v1	2144	11	15	7.67042852219069	1	s1_v2 sx_v1 s1_v1
26	Male	English	1.25991666666667	3	s1_v2	s2_v1	sx_v1	sx_v1	2144	12	15	7.67042852219069	1	s1_v2 s2_v1 sx_v1
26	Male	English	1.25991666666667	2	s1_v2	sx_v1	s2_v1	sx_v1	1264	13	15	7.1420365747068	1	s1_v2 sx_v1 s2_v1
26	Male	English	1.25991666666667	1	s1_v1	s2_vx	s2_v1	s1_v1	1327	14	15	7.19067603433221	2	s1_v1 s2_vx s2_v1
26	Male	English	1.25991666666667	2	s2_v2	s1_v1	s2_v2	s1_v1	945	15	15	6.85118492749374	2	s2_v2 s1_v1 s2_v2
26	Male	English	1.25991666666667	3	s2_v2	s1_v1	sx_v1	sx_v1	1256	16	15	7.13568734702814	2	s2_v2 s1_v1 sx_v1
26	Male	English	1.25991666666667	3	s2_v2	s2_v1	sx_v2	sx_v2	1016	17	15	6.92362862813843	2	s2_v2 s2_v1 sx_v2
26	Male	English	1.25991666666667	3	s2_v1	s2_v2	sx_v1	sx_v1	1304	18	15	7.1731917424866	2	s2_v1 s2_v2 sx_v1
26	Male	English	1.25991666666667	1	sx_v1	s2_vx	s1_v2	sx_v1	1319	19	15	7.18462915271731	2	sx_v1 s2_vx s1_v2
26	Male	English	1.25991666666667	2	s2_v2	sx_vx	s1_v1	sx_vx	1326	20	15	7.18992217074581	2	s2_v2 sx_vx s1_v1
26	Male	English	1.25991666666667	2	s2_v1	sx_v2	s1_v2	sx_v2	2089	21	15	7.64444076155657	2	s2_v1 sx_v2 s1_v2
26	Male	English	1.25991666666667	1	sx_v2	s2_v1	s2_v1	sx_v2	1256	22	15	7.13568734702814	2	sx_v2 s2_v1 s2_v1
26	Male	English	1.25991666666667	3	s1_v2	s1_v1	sx_v1	sx_v1	2112	23	15	7.65539064482615	2	s1_v2 s1_v1 sx_v1
26	Male	English	1.25991666666667	1	s2_v1	s1_v2	s1_v2	s2_v1	1088	24	15	6.99209642741589	2	s2_v1 s1_v2 s1_v2
26	Male	English	1.25991666666667	2	s1_v2	sx_v2	s2_v1	sx_v2	944	25	15	6.8501261661455	2	s1_v2 sx_v2 s2_v1
38	female	English	2.28856666666667	3	sx_v2	s1_v1	s1_v2	s1_v2	12529	0	16	9.43580123624555	1	sx_v2 s1_v1 s1_v2
38	female	English	2.28856666666667	3	s2_v2	s1_vx	sx_v1	sx_v1	17207	1	16	9.75307155675316	1	s2_v2 s1_vx sx_v1
38	female	English	2.28856666666667	2	s2_v2	sx_v1	s1_v1	sx_v1	9342	2	16	9.14227564106205	1	s2_v2 sx_v1 s1_v1
38	female	English	2.28856666666667	1	s2_vx	s1_v2	s2_v2	s2_vx	6832	3	16	8.82937273546841	1	s2_vx s1_v2 s2_v2
38	female	English	2.28856666666667	1	s2_vx	s1_v1	s2_v1	s2_vx	1582	4	16	7.3664451483276	1	s2_vx s1_v1 s2_v1
38	female	English	2.28856666666667	1	s1_v2	s2_vx	s2_v1	s1_v2	3602	5	16	8.1892445257359	1	s1_v2 s2_vx s2_v1
38	female	English	2.28856666666667	1	sx_v2	s1_v2	s1_v1	sx_v2	3095	6	16	8.0375431851187	1	sx_v2 s1_v2 s1_v1
38	female	English	2.28856666666667	2	s2_v2	s1_v1	sx_v2	s1_v1	1631	7	16	7.39694860262101	1	s2_v2 s1_v1 sx_v2
38	female	English	2.28856666666667	1	sx_v2	s2_v1	s1_vx	sx_v2	2177	8	16	7.68570306123455	1	sx_v2 s2_v1 s1_vx
38	female	English	2.28856666666667	1	s2_v1	s1_v2	s1_v2	s2_v1	2173	9	16	7.68386398025643	1	s2_v1 s1_v2 s1_v2
38	female	English	2.28856666666667	3	s2_v1	s2_v1	sx_v2	sx_v2	1056	10	16	6.96224346426621	1	s2_v1 s2_v1 sx_v2
38	female	English	2.28856666666667	2	s2_v1	sx_v2	s2_v2	sx_v2	1910	11	16	7.55485852104068	1	s2_v1 sx_v2 s2_v2
38	female	English	2.28856666666667	3	s2_v1	sx_v1	s2_v2	s2_v2	5312	12	16	8.57772369115627	1	s2_v1 sx_v1 s2_v2
38	female	English	2.28856666666667	1	sx_v2	s2_v2	s1_v1	sx_v2	1448	13	16	7.27793857294566	1	sx_v2 s2_v2 s1_v1
38	female	English	2.28856666666667	2	s1_vx	s2_v1	s1_v2	s2_v1	2047	14	16	7.62413058566129	2	s1_vx s2_v1 s1_v2
38	female	English	2.28856666666667	3	s2_v1	s2_v1	s1_v2	s1_v2	1615	15	16	7.38709023565676	2	s2_v1 s2_v1 s1_v2
38	female	English	2.28856666666667	2	s1_v2	s2_v1	s1_vx	s2_v1	2612	16	16	7.86787149039632	2	s1_v2 s2_v1 s1_vx
38	female	English	2.28856666666667	2	s1_v2	sx_v1	s1_v1	sx_v1	1663	17	16	7.41637847919293	2	s1_v2 sx_v1 s1_v1
38	female	English	2.28856666666667	3	s1_v2	s1_v2	s2_v1	s2_v1	1343	18	16	7.20266119652324	2	s1_v2 s1_v2 s2_v1
38	female	English	2.28856666666667	2	sx_v2	s2_v1	s1_v2	s2_v1	8509	19	16	9.04887970584956	2	sx_v2 s2_v1 s1_v2
38	female	English	2.28856666666667	1	s1_v1	s2_vx	s2_v2	s1_v1	1789	20	16	7.48941208350872	2	s1_v1 s2_vx s2_v2
38	female	English	2.28856666666667	2	s1_v2	sx_v1	s2_v1	sx_v1	1746	21	16	7.46508273639955	2	s1_v2 sx_v1 s2_v1
38	female	English	2.28856666666667	3	s1_v1	s1_vx	s2_v1	s2_v1	3621	22	16	8.19450550976564	2	s1_v1 s1_vx s2_v1
38	female	English	2.28856666666667	2	s1_v2	sx_v1	s2_vx	sx_v1	2242	23	16	7.71512360363211	2	s1_v2 sx_v1 s2_vx
38	female	English	2.28856666666667	3	s1_v2	s2_v1	sx_v2	sx_v2	3359	24	16	8.11939858961229	2	s1_v2 s2_v1 sx_v2
38	female	English	2.28856666666667	2	s2_v1	s1_v1	s2_vx	s1_v1	2432	25	16	7.79646924308606	2	s2_v1 s1_v1 s2_vx
32	male	english	2.07965	2	s1_v2	s2_vx	s2_v2	s2_vx	4968	0	17	8.51077262361331	1	s1_v2 s2_vx s2_v2
32	male	english	2.07965	3	s2_vx	s1_v2	s2_v1	s2_v1	7076	1	17	8.86446405527968	1	s2_vx s1_v2 s2_v1
32	male	english	2.07965	1	s1_vx	s2_v1	s1_v2	s1_vx	6476	2	17	8.77585831479753	1	s1_vx s2_v1 s1_v2
32	male	english	2.07965	3	s2_v1	s2_v1	sx_v2	sx_v2	2545	3	17	7.84188592898462	1	s2_v1 s2_v1 sx_v2
32	male	english	2.07965	3	s1_v2	s2_v2	s1_vx	s1_vx	3645	4	17	8.20111164444276	1	s1_v2 s2_v2 s1_vx
32	male	english	2.07965	1	sx_v1	s1_vx	s2_v2	sx_v1	2544	5	17	7.84149292446001	1	sx_v1 s1_vx s2_v2
32	male	english	2.07965	2	s2_v2	sx_v1	s1_vx	sx_v1	3867	6	17	8.2602342916073	1	s2_v2 sx_v1 s1_vx
32	male	english	2.07965	1	sx_v2	s2_v2	s1_v1	sx_v2	2133	7	17	7.66528471847135	1	sx_v2 s2_v2 s1_v1
32	male	english	2.07965	2	s1_v1	sx_v1	s1_v2	sx_v1	2464	8	17	7.80954132465341	1	s1_v1 sx_v1 s1_v2
32	male	english	2.07965	2	s1_v2	sx_vx	s2_v1	sx_vx	2616	9	17	7.86940171257709	1	s1_v2 sx_vx s2_v1
32	male	english	2.07965	3	s2_vx	s1_v2	sx_v1	sx_v1	3810	10	17	8.24538446812075	1	s2_vx s1_v2 sx_v1
32	male	english	2.07965	2	s2_v2	sx_v1	s2_v2	sx_v1	2430	11	17	7.79564653633459	1	s2_v2 sx_v1 s2_v2
32	male	english	2.07965	2	s1_v1	s1_vx	s2_v2	s1_vx	1807	12	17	7.49942329059223	1	s1_v1 s1_vx s2_v2
32	male	english	2.07965	1	sx_v2	s1_v1	s2_vx	sx_v2	2980	13	17	7.99967857949945	1	sx_v2 s1_v1 s2_vx
32	male	english	2.07965	2	s1_v1	sx_v2	s2_vx	sx_v2	2197	14	17	7.69484807238461	2	s1_v1 sx_v2 s2_vx
32	male	english	2.07965	1	s1_v2	s2_v1	s2_vx	s1_v2	2174	15	17	7.68432406768116	2	s1_v2 s2_v1 s2_vx
32	male	english	2.07965	2	s1_v2	sx_v1	s2_vx	sx_v1	2328	16	17	7.75276480885133	2	s1_v2 sx_v1 s2_vx
32	male	english	2.07965	3	s1_v1	s1_v1	s2_v2	s2_v2	1688	17	17	7.4312996751559	2	s1_v1 s1_v1 s2_v2
32	male	english	2.07965	1	sx_v1	s1_v1	s2_v2	sx_v1	1844	18	17	7.51969240411654	2	sx_v1 s1_v1 s2_v2
32	male	english	2.07965	2	s1_v1	s2_v2	s1_v1	s2_v2	1894	19	17	7.54644627374602	2	s1_v1 s2_v2 s1_v1
32	male	english	2.07965	1	s2_vx	s2_v2	s1_v2	s2_vx	1781	20	17	7.48493028328966	2	s2_vx s2_v2 s1_v2
32	male	english	2.07965	3	s1_vx	s1_v2	s2_v2	s2_v2	1481	21	17	7.3004728142678	2	s1_vx s1_v2 s2_v2
32	male	english	2.07965	2	s1_v1	sx_vx	s2_v2	sx_vx	1304	22	17	7.1731917424866	2	s1_v1 sx_vx s2_v2
32	male	english	2.07965	1	s1_v1	s2_v2	s2_vx	s1_v1	1353	23	17	7.21007962817079	2	s1_v1 s2_v2 s2_vx
32	male	english	2.07965	3	s2_v1	s1_v1	s2_vx	s2_vx	2474	24	17	7.81359155295243	2	s2_v1 s1_v1 s2_vx
32	male	english	2.07965	1	sx_v1	s1_v2	s1_v1	sx_v1	1447	25	17	7.27724772663148	2	sx_v1 s1_v2 s1_v1
39	female	english	2.21888333333333	1	sx_v1	s2_v1	s1_v2	sx_v1	18629	0	18	9.83247478528971	1	sx_v1 s2_v1 s1_v2
39	female	english	2.21888333333333	2	s2_v1	sx_v1	s1_v2	sx_v1	4503	1	18	8.41249912030157	1	s2_v1 sx_v1 s1_v2
39	female	english	2.21888333333333	3	s1_vx	s2_v2	sx_v1	sx_v1	4464	2	18	8.40380050406115	1	s1_vx s2_v2 sx_v1
39	female	english	2.21888333333333	2	sx_vx	s2_v1	s1_v2	s2_v1	3113	3	18	8.04334217044161	1	sx_vx s2_v1 s1_v2
39	female	english	2.21888333333333	3	s1_v2	s2_v1	sx_v1	sx_v1	2024	4	18	7.61283103040736	1	s1_v2 s2_v1 sx_v1
39	female	english	2.21888333333333	3	s2_v2	s1_v1	sx_v1	sx_v1	8223	5	18	9.0146903849709	1	s2_v2 s1_v1 sx_v1
39	female	english	2.21888333333333	3	s2_vx	s1_v1	s2_v1	s2_v1	2040	6	18	7.62070508683826	1	s2_vx s1_v1 s2_v1
39	female	english	2.21888333333333	2	sx_vx	s1_v1	s2_v2	s1_v1	1184	7	18	7.07665381544395	1	sx_vx s1_v1 s2_v2
39	female	english	2.21888333333333	2	s2_v2	s1_v1	sx_vx	s1_v1	1568	8	18	7.35755620091035	1	s2_v2 s1_v1 sx_vx
39	female	english	2.21888333333333	3	s1_v2	s2_vx	s2_v2	s2_v2	1993	9	18	7.59739632021279	1	s1_v2 s2_vx s2_v2
39	female	english	2.21888333333333	2	s1_vx	s1_v1	s2_v1	s1_v1	1503	10	18	7.31521838975297	1	s1_vx s1_v1 s2_v1
39	female	english	2.21888333333333	1	s2_v1	s1_v2	s2_v1	s2_v1	1449	11	18	7.27862894232068	1	s2_v1 s1_v2 s2_v1
39	female	english	2.21888333333333	2	s2_vx	s1_v1	sx_v2	s1_v1	1303	12	18	7.17242457712485	1	s2_vx s1_v1 sx_v2
39	female	english	2.21888333333333	2	s1_v2	s2_v2	s1_vx	s2_v2	1120	13	18	7.02108396428914	1	s1_v2 s2_v2 s1_vx
39	female	english	2.21888333333333	2	s2_vx	s2_v2	s1_v1	s2_v2	1216	14	18	7.10332206252611	2	s2_vx s2_v2 s1_v1
39	female	english	2.21888333333333	2	s2_v2	s1_v1	s2_v2	s1_v1	7031	15	18	8.85808422219916	2	s2_v2 s1_v1 s2_v2
39	female	english	2.21888333333333	1	s1_v1	s2_v2	s2_v2	s1_v1	2654	16	18	7.88382321489215	2	s1_v1 s2_v2 s2_v2
39	female	english	2.21888333333333	1	s2_v1	s1_v2	s1_v2	s2_v1	1101	17	18	7.00397413672268	2	s2_v1 s1_v2 s1_v2
39	female	english	2.21888333333333	2	sx_v2	s1_v1	s2_vx	s1_v1	2203	18	18	7.69757534680234	2	sx_v2 s1_v1 s2_vx
39	female	english	2.21888333333333	3	s1_v2	sx_v2	s1_v1	s1_v1	1335	19	18	7.19668657083435	2	s1_v2 sx_v2 s1_v1
39	female	english	2.21888333333333	2	sx_v1	s1_v1	s2_v2	s1_v1	1168	20	18	7.06304816338817	2	sx_v1 s1_v1 s2_v2
39	female	english	2.21888333333333	1	s2_v1	s1_v2	sx_v2	s2_v1	1847	21	18	7.52131798019924	2	s2_v1 s1_v2 sx_v2
39	female	english	2.21888333333333	2	s2_vx	s1_v2	s2_v2	s1_v2	1152	22	18	7.04925484125584	2	s2_vx s1_v2 s2_v2
39	female	english	2.21888333333333	1	s1_v1	sx_v2	s2_vx	s1_v1	1711	23	18	7.44483327389219	2	s1_v1 sx_v2 s2_vx
39	female	english	2.21888333333333	3	s2_v1	s2_v2	sx_v1	sx_v1	1671	24	18	7.42117752859539	2	s2_v1 s2_v2 sx_v1
39	female	english	2.21888333333333	3	s2_vx	s2_v1	s1_v1	s1_v1	1512	25	18	7.32118855673948	2	s2_vx s2_v1 s1_v1
26	Male	English	1.15903333333333	1	s1_v1	s2_v2	sx_vx	s1_v1	7920	0	19	8.97714648480847	1	s1_v1 s2_v2 sx_vx
26	Male	English	1.15903333333333	2	s2_v1	s1_v2	s2_v1	s1_v2	5403	1	19	8.59470963384407	1	s2_v1 s1_v2 s2_v1
26	Male	English	1.15903333333333	2	sx_v2	s1_v1	s1_v2	s1_v1	2211	2	19	7.70120018085745	1	sx_v2 s1_v1 s1_v2
26	Male	English	1.15903333333333	3	s2_v2	s2_vx	s1_v1	s1_v1	2080	3	19	7.64012317269536	1	s2_v2 s2_vx s1_v1
26	Male	English	1.15903333333333	3	s2_vx	s2_v1	s1_v1	s1_v1	3860	4	19	8.25842246245888	1	s2_vx s2_v1 s1_v1
26	Male	English	1.15903333333333	2	s1_v1	sx_v1	s1_v2	sx_v1	1932	5	19	7.56631101477246	1	s1_v1 sx_v1 s1_v2
26	Male	English	1.15903333333333	3	s2_v2	s1_vx	s1_v1	s1_v1	1528	6	19	7.33171496972647	1	s2_v2 s1_vx s1_v1
26	Male	English	1.15903333333333	1	sx_v1	s1_v2	s1_v1	sx_v1	1600	7	19	7.37775890822787	1	sx_v1 s1_v2 s1_v1
26	Male	English	1.15903333333333	1	sx_v1	s1_v2	s1_v2	sx_v1	1459	8	19	7.28550654852279	1	sx_v1 s1_v2 s1_v2
26	Male	English	1.15903333333333	1	sx_v1	s2_v2	s2_v1	sx_v1	1080	9	19	6.98471632011827	1	sx_v1 s2_v2 s2_v1
26	Male	English	1.15903333333333	3	s2_vx	s1_v2	s2_v1	s2_v1	2031	10	19	7.61628356158038	1	s2_vx s1_v2 s2_v1
26	Male	English	1.15903333333333	2	s2_v2	s1_v1	s2_vx	s1_v1	1189	11	19	7.08086789669078	1	s2_v2 s1_v1 s2_vx
26	Male	English	1.15903333333333	3	s2_v2	s2_v2	sx_v1	sx_v1	823	12	19	6.71295620067707	1	s2_v2 s2_v2 sx_v1
26	Male	English	1.15903333333333	3	sx_v2	s2_vx	s1_v1	s1_v1	695	13	19	6.54391184556479	1	sx_v2 s2_vx s1_v1
26	Male	English	1.15903333333333	2	s1_v2	s2_v1	s1_v2	s2_v1	945	14	19	6.85118492749374	2	s1_v2 s2_v1 s1_v2
26	Male	English	1.15903333333333	2	s1_vx	s2_v1	s1_v1	s2_v1	1360	15	19	7.2152399787301	2	s1_vx s2_v1 s1_v1
26	Male	English	1.15903333333333	2	s2_v2	s1_v1	s1_vx	s1_v1	732	16	19	6.59578051396131	2	s2_v2 s1_v1 s1_vx
26	Male	English	1.15903333333333	1	sx_v1	s2_v1	s1_v2	sx_v1	839	17	19	6.73221070646721	2	sx_v1 s2_v1 s1_v2
26	Male	English	1.15903333333333	1	s2_v1	sx_v2	s2_v2	s2_v1	1175	18	19	7.06902342657826	2	s2_v1 sx_v2 s2_v2
26	Male	English	1.15903333333333	1	sx_v1	s2_v2	s1_v1	sx_v1	1488	19	19	7.30518821539304	2	sx_v1 s2_v2 s1_v1
26	Male	English	1.15903333333333	2	s1_vx	s1_v1	s2_v2	s1_v1	892	20	19	6.79346613258001	2	s1_vx s1_v1 s2_v2
26	Male	English	1.15903333333333	2	s1_v2	sx_v1	s2_vx	sx_v1	673	21	19	6.51174532964473	2	s1_v2 sx_v1 s2_vx
26	Male	English	1.15903333333333	2	s1_vx	sx_v1	s2_v2	sx_v1	631	22	19	6.44730586254121	2	s1_vx sx_v1 s2_v2
26	Male	English	1.15903333333333	3	s1_v2	s1_vx	s2_v1	s2_v1	1240	23	19	7.12286665859908	2	s1_v2 s1_vx s2_v1
26	Male	English	1.15903333333333	1	s1_v1	s2_v2	s2_v2	s1_v1	983	24	19	6.89060912014717	2	s1_v1 s2_v2 s2_v2
26	Male	English	1.15903333333333	3	s2_vx	sx_v2	s1_v1	s1_v1	884	25	19	6.78445706263764	2	s2_vx sx_v2 s1_v1
25	Female	English	1.5461	3	s2_vx	sx_v2	s1_v1	s1_v1	11010	0	20	9.30655922971673	1	s2_vx sx_v2 s1_v1
25	Female	English	1.5461	1	sx_v2	s1_v1	s2_vx	sx_v2	6552	1	20	8.78752562553291	1	sx_v2 s1_v1 s2_vx
25	Female	English	1.5461	3	s1_vx	s2_v2	sx_v1	sx_v1	8601	2	20	9.05963375455148	1	s1_vx s2_v2 sx_v1
25	Female	English	1.5461	1	s1_v1	s2_vx	s2_v2	s1_v1	1903	3	20	7.55118686729615	1	s1_v1 s2_vx s2_v2
25	Female	English	1.5461	2	s1_v2	sx_v1	s2_vx	sx_v1	1602	4	20	7.3790081276283	1	s1_v2 sx_v1 s2_vx
25	Female	English	1.5461	1	s1_v2	sx_v2	s1_v1	s1_v2	2551	5	20	7.84424071814181	1	s1_v2 sx_v2 s1_v1
25	Female	English	1.5461	1	sx_v1	s1_v1	s1_v2	sx_v1	1914	6	20	7.5569505720129	1	sx_v1 s1_v1 s1_v2
25	Female	English	1.5461	3	s2_v2	s1_v1	s2_vx	s2_vx	2906	7	20	7.97453284413023	1	s2_v2 s1_v1 s2_vx
25	Female	English	1.5461	2	s2_vx	s1_v1	s2_v1	s1_v1	1850	8	20	7.52294091807237	1	s2_vx s1_v1 s2_v1
25	Female	English	1.5461	3	s1_v2	s2_v1	sx_v2	sx_v2	2625	9	20	7.87283617502572	1	s1_v2 s2_v1 sx_v2
25	Female	English	1.5461	2	s1_v2	sx_v1	s2_v1	sx_v1	1322	10	20	7.18690102041163	1	s1_v2 sx_v1 s2_v1
25	Female	English	1.5461	2	s2_v1	s2_v2	sx_v2	s2_v2	1568	11	20	7.35755620091035	1	s2_v1 s2_v2 sx_v2
25	Female	English	1.5461	2	s2_v1	sx_v1	s1_v2	sx_v1	1647	12	20	7.40671073017764	1	s2_v1 sx_v1 s1_v2
25	Female	English	1.5461	1	s2_v1	s1_v1	s2_vx	s2_v1	1278	13	20	7.15305163493748	1	s2_v1 s1_v1 s2_vx
25	Female	English	1.5461	1	s1_v1	s2_v2	s2_v2	s1_v1	2433	14	20	7.79688034278352	2	s1_v1 s2_v2 s2_v2
25	Female	English	1.5461	2	s1_vx	sx_v1	s2_v2	sx_v1	2224	15	20	7.70706265537047	2	s1_vx sx_v1 s2_v2
25	Female	English	1.5461	3	s2_v2	s1_v2	s1_vx	s1_vx	1742	16	20	7.46278915741245	2	s2_v2 s1_v2 s1_vx
25	Female	English	1.5461	2	s1_vx	s1_v2	s2_v1	s1_v2	1636	17	20	7.40000951716269	2	s1_vx s1_v2 s2_v1
25	Female	English	1.5461	1	s1_v1	s1_vx	s2_v2	s1_v1	1421	18	20	7.2591161280971	2	s1_v1 s1_vx s2_v2
25	Female	English	1.5461	3	s2_v2	s2_vx	s1_v2	s1_v2	1520	19	20	7.32646561384032	2	s2_v2 s2_vx s1_v2
25	Female	English	1.5461	3	s1_v2	s2_v1	sx_v1	sx_v1	1260	20	20	7.13886699994552	2	s1_v2 s2_v1 sx_v1
25	Female	English	1.5461	3	s2_v1	s1_v2	sx_v2	sx_v2	2378	21	20	7.77401507725073	2	s2_v1 s1_v2 sx_v2
25	Female	English	1.5461	2	s1_vx	s1_v1	s2_v1	s1_v1	1426	22	20	7.26262860097424	2	s1_vx s1_v1 s2_v1
25	Female	English	1.5461	2	s1_v1	sx_v2	s1_v1	sx_v2	887	23	20	6.78784498230958	2	s1_v1 sx_v2 s1_v1
25	Female	English	1.5461	1	s1_v1	s2_vx	sx_v2	s1_v1	952	24	20	6.85856503479136	2	s1_v1 s2_vx sx_v2
25	Female	English	1.5461	3	s1_v1	s2_v2	s2_vx	s2_vx	1164	25	20	7.05961762829138	2	s1_v1 s2_v2 s2_vx
37	male	english	1.85873333333333	2	sx_v2	s2_v1	s1_v2	s2_v1	13944	0	21	9.54280458719986	1	sx_v2 s2_v1 s1_v2
37	male	english	1.85873333333333	2	s2_v2	sx_v1	s1_vx	sx_v1	9286	1	21	9.13626316857987	1	s2_v2 sx_v1 s1_vx
37	male	english	1.85873333333333	1	sx_v1	s1_v1	s2_v2	sx_v1	8640	2	21	9.0641578617981	1	sx_v1 s1_v1 s2_v2
37	male	english	1.85873333333333	2	s2_vx	s2_v1	s1_v1	s2_v1	7304	3	21	8.89617742227481	1	s2_vx s2_v1 s1_v1
37	male	english	1.85873333333333	1	s2_v1	s2_vx	s1_v1	s2_v1	3392	4	21	8.12917499691179	1	s2_v1 s2_vx s1_v1
37	male	english	1.85873333333333	1	s1_v1	s2_v2	sx_vx	s1_v1	6415	5	21	8.76639427704974	1	s1_v1 s2_v2 sx_vx
37	male	english	1.85873333333333	2	s1_v2	s1_v1	sx_v2	s1_v1	1190	6	21	7.08170858610557	1	s1_v2 s1_v1 sx_v2
37	male	english	1.85873333333333	3	s1_v2	s1_vx	s2_v1	s2_v1	1791	7	21	7.49052940206071	1	s1_v2 s1_vx s2_v1
37	male	english	1.85873333333333	2	s1_v2	s2_v1	sx_v2	s2_v1	1184	8	21	7.07665381544395	1	s1_v2 s2_v1 sx_v2
37	male	english	1.85873333333333	1	s2_v1	s1_v2	sx_v2	s2_v1	1239	9	21	7.12205988162914	1	s2_v1 s1_v2 sx_v2
37	male	english	1.85873333333333	1	s2_v1	s1_vx	sx_v2	s2_v1	1440	10	21	7.27239839257005	1	s2_v1 s1_vx sx_v2
37	male	english	1.85873333333333	2	s1_v2	s2_v1	s1_v2	s2_v1	983	11	21	6.89060912014717	1	s1_v2 s2_v1 s1_v2
37	male	english	1.85873333333333	3	s1_v2	s2_vx	sx_v1	sx_v1	2857	12	21	7.95752740223077	1	s1_v2 s2_vx sx_v1
37	male	english	1.85873333333333	3	s2_v2	s1_vx	sx_v1	sx_v1	1064	13	21	6.96979066990159	1	s2_v2 s1_vx sx_v1
37	male	english	1.85873333333333	3	sx_v2	s2_vx	s1_v1	s1_v1	695	14	21	6.54391184556479	2	sx_v2 s2_vx s1_v1
37	male	english	1.85873333333333	2	s2_v2	s1_v1	sx_v2	s1_v1	1033	15	21	6.94022246911964	2	s2_v2 s1_v1 sx_v2
37	male	english	1.85873333333333	3	s2_vx	s2_v2	s1_v2	s1_v2	2214	16	21	7.70255611326858	2	s2_vx s2_v2 s1_v2
37	male	english	1.85873333333333	1	s1_v1	s1_vx	s2_v2	s1_v1	1312	17	21	7.17930796950403	2	s1_v1 s1_vx s2_v2
37	male	english	1.85873333333333	2	s1_v2	sx_v1	s2_vx	sx_v1	1079	18	21	6.98378996525813	2	s1_v2 sx_v1 s2_vx
37	male	english	1.85873333333333	2	s2_v1	sx_v1	s2_v2	sx_v1	1415	19	21	7.25488481007734	2	s2_v1 sx_v1 s2_v2
37	male	english	1.85873333333333	3	s1_v2	sx_v2	s1_v1	s1_v1	1168	20	21	7.06304816338817	2	s1_v2 sx_v2 s1_v1
37	male	english	1.85873333333333	1	s1_v1	s2_v2	s1_vx	s1_v1	1111	21	21	7.01301578963963	2	s1_v1 s2_v2 s1_vx
37	male	english	1.85873333333333	3	sx_v2	s2_v2	s1_v1	s1_v1	1129	22	21	7.02908756414966	2	sx_v2 s2_v2 s1_v1
37	male	english	1.85873333333333	2	s2_vx	s2_v1	s1_v2	s2_v1	1207	23	21	7.09589322109753	2	s2_vx s2_v1 s1_v2
37	male	english	1.85873333333333	2	s1_v1	s1_v1	s2_v2	s1_v1	1705	24	21	7.44132038971762	2	s1_v1 s1_v1 s2_v2
37	male	english	1.85873333333333	2	sx_v2	s1_v1	s2_v2	s1_v1	1096	25	21	6.99942246750796	2	sx_v2 s1_v1 s2_v2
28	female	english	2.7385	2	s2_v2	s1_v1	s2_v2	s1_v1	9192	0	22	9.12608881952859	1	s2_v2 s1_v1 s2_v2
28	female	english	2.7385	1	sx_v2	s2_v2	s1_v1	sx_v2	9354	1	22	9.14355933828583	1	sx_v2 s2_v2 s1_v1
28	female	english	2.7385	3	s2_v2	s1_vx	sx_v1	sx_v1	6038	2	22	8.70582811026678	1	s2_v2 s1_vx sx_v1
28	female	english	2.7385	1	s1_v2	s2_vx	sx_v1	s1_v2	6227	3	22	8.73664995487245	1	s1_v2 s2_vx sx_v1
28	female	english	2.7385	3	s2_v2	s1_v1	s2_vx	s2_vx	3547	4	22	8.17385745477362	1	s2_v2 s1_v1 s2_vx
28	female	english	2.7385	2	s2_v2	s1_v1	s1_vx	s1_v1	1359	5	22	7.21450441415114	1	s2_v2 s1_v1 s1_vx
28	female	english	2.7385	3	s2_v2	s2_v1	sx_v2	sx_v2	1409	6	22	7.25063551189868	1	s2_v2 s2_v1 sx_v2
28	female	english	2.7385	1	s2_v1	s1_v2	sx_vx	s2_v1	2656	7	22	7.88457651059632	1	s2_v1 s1_v2 sx_vx
28	female	english	2.7385	2	sx_v2	s1_v1	s1_v2	s1_v1	11462	8	22	9.34679249511168	1	sx_v2 s1_v1 s1_v2
28	female	english	2.7385	1	s1_v2	s1_v2	s2_v1	s1_v2	4333	9	22	8.37401542173991	1	s1_v2 s1_v2 s2_v1
28	female	english	2.7385	2	s2_v2	sx_v2	s2_v1	sx_v2	2099	10	22	7.64921631982063	1	s2_v2 sx_v2 s2_v1
28	female	english	2.7385	3	s1_v1	s2_v2	sx_v1	sx_v1	7255	11	22	8.88944616531829	1	s1_v1 s2_v2 sx_v1
28	female	english	2.7385	2	s1_v1	sx_vx	s2_v2	sx_vx	5183	12	22	8.55313931818971	1	s1_v1 sx_vx s2_v2
28	female	english	2.7385	2	s2_v2	s1_vx	s1_v2	s1_vx	2859	13	22	7.95822719232231	1	s2_v2 s1_vx s1_v2
28	female	english	2.7385	3	s1_vx	sx_v2	s2_v1	s2_v1	2049	14	22	7.6251071482389	2	s1_vx sx_v2 s2_v1
28	female	english	2.7385	1	s1_v1	s1_v2	sx_v1	s1_v1	2059	15	22	7.62997570702779	2	s1_v1 s1_v2 sx_v1
28	female	english	2.7385	3	s2_v2	s1_vx	s1_v1	s1_v1	1593	16	22	7.37337430991005	2	s2_v2 s1_vx s1_v1
28	female	english	2.7385	1	s1_v2	sx_v1	s2_vx	s1_v2	1899	17	22	7.54908271081229	2	s1_v2 sx_v1 s2_vx
28	female	english	2.7385	2	s2_v2	sx_v1	s1_vx	sx_v1	767	18	22	6.64248680136726	2	s2_v2 sx_v1 s1_vx
28	female	english	2.7385	1	s1_v2	s2_v2	s1_vx	s1_v2	1075	19	22	6.98007594056176	2	s1_v2 s2_v2 s1_vx
28	female	english	2.7385	1	s2_v1	s1_v1	s2_vx	s2_v1	3671	20	22	8.20821938349683	2	s2_v1 s1_v1 s2_vx
28	female	english	2.7385	3	s2_v2	sx_v2	s1_v1	s1_v1	2031	21	22	7.61628356158038	2	s2_v2 sx_v2 s1_v1
28	female	english	2.7385	3	sx_v1	s2_v1	s1_v2	s1_v2	2727	22	22	7.91095738284559	2	sx_v1 s2_v1 s1_v2
28	female	english	2.7385	2	s1_v1	s1_v1	s2_v2	s1_v1	1158	23	22	7.05444965813294	2	s1_v1 s1_v1 s2_v2
28	female	english	2.7385	2	sx_v2	s2_v1	s2_v1	s2_v1	1003	24	22	6.91075078796194	2	sx_v2 s2_v1 s2_v1
28	female	english	2.7385	1	sx_v1	s2_v2	s1_v1	sx_v1	2404	25	22	7.7848892956551	2	sx_v1 s2_v2 s1_v1
31	female	English	1.8441	3	s2_v1	s2_v1	sx_v2	sx_v2	10384	0	23	9.24802143894387	1	s2_v1 s2_v1 sx_v2
31	female	English	1.8441	3	s2_v1	s1_v1	s1_vx	s1_vx	8480	1	23	9.04546572878595	1	s2_v1 s1_v1 s1_vx
31	female	English	1.8441	2	s1_v2	sx_v1	s2_vx	sx_v1	4968	2	23	8.51077262361331	1	s1_v2 sx_v1 s2_vx
31	female	English	1.8441	1	s1_vx	s2_v1	s1_v1	s1_vx	2687	3	23	7.89618060861549	1	s1_vx s2_v1 s1_v1
31	female	English	1.8441	3	s1_v2	s2_v2	s2_vx	s2_vx	5129	4	23	8.54266598738927	1	s1_v2 s2_v2 s2_vx
31	female	English	1.8441	3	s1_v1	sx_v1	s1_v2	s1_v2	3696	5	23	8.21500643276157	1	s1_v1 sx_v1 s1_v2
31	female	English	1.8441	2	s1_v2	s2_vx	s2_v1	s2_vx	3032	6	23	8.01697774676226	1	s1_v2 s2_vx s2_v1
31	female	English	1.8441	2	s2_v2	sx_v1	s2_v2	sx_v1	2887	7	23	7.96797317966293	1	s2_v2 sx_v1 s2_v2
31	female	English	1.8441	3	s2_v1	sx_v1	s2_v2	s2_v2	2609	8	23	7.86672228513673	1	s2_v1 sx_v1 s2_v2
31	female	English	1.8441	3	sx_v1	s1_v1	s1_v2	s1_v2	2215	9	23	7.70300768247924	1	sx_v1 s1_v1 s1_v2
31	female	English	1.8441	3	s2_v1	s1_v1	s2_vx	s2_vx	4835	10	23	8.48363640788739	1	s2_v1 s1_v1 s2_vx
31	female	English	1.8441	3	s1_v2	sx_v2	s1_v1	s1_v1	1229	11	23	7.11395610956603	1	s1_v2 sx_v2 s1_v1
31	female	English	1.8441	3	s2_v2	s1_v2	s2_vx	s2_vx	1881	12	23	7.53955882930103	1	s2_v2 s1_v2 s2_vx
31	female	English	1.8441	1	s1_vx	s2_v1	s1_v2	s1_vx	3400	13	23	8.13153071060425	1	s1_vx s2_v1 s1_v2
31	female	English	1.8441	2	s1_v2	s2_v1	s1_v2	s2_v1	5815	14	23	8.66819606495276	2	s1_v2 s2_v1 s1_v2
31	female	English	1.8441	2	sx_v1	s1_v2	s1_v1	s1_v2	1008	15	23	6.91572344863131	2	sx_v1 s1_v2 s1_v1
31	female	English	1.8441	2	s2_v2	s2_vx	s1_v2	s2_vx	759	16	23	6.63200177739563	2	s2_v2 s2_vx s1_v2
31	female	English	1.8441	3	sx_v1	s2_v1	s1_v2	s1_v2	1208	17	23	7.09672137849476	2	sx_v1 s2_v1 s1_v2
31	female	English	1.8441	2	sx_v2	s1_vx	s2_v1	s1_vx	1456	18	23	7.28344822875663	2	sx_v2 s1_vx s2_v1
31	female	English	1.8441	1	s2_v1	s1_vx	s1_v2	s2_v1	3688	19	23	8.21283958467648	2	s2_v1 s1_vx s1_v2
31	female	English	1.8441	3	sx_v2	s2_v2	s1_v1	s1_v1	3272	20	23	8.09315669772264	2	sx_v2 s2_v2 s1_v1
31	female	English	1.8441	1	s2_v2	s2_v1	sx_v1	s2_v2	1263	21	23	7.14124512235049	2	s2_v2 s2_v1 sx_v1
31	female	English	1.8441	2	s2_vx	s2_v1	s1_v2	s2_v1	3248	22	23	8.08579470128157	2	s2_vx s2_v1 s1_v2
31	female	English	1.8441	3	s2_v2	sx_v2	s1_v1	s1_v1	2008	23	23	7.60489448081162	2	s2_v2 sx_v2 s1_v1
31	female	English	1.8441	2	s1_v1	s2_v2	sx_v1	s2_v2	1168	24	23	7.06304816338817	2	s1_v1 s2_v2 sx_v1
31	female	English	1.8441	1	s2_v2	sx_v1	s1_v1	s2_v2	1759	25	23	7.47250074473756	2	s2_v2 sx_v1 s1_v1
37	male	English	1.47725	2	s1_v2	s2_v1	s2_vx	s2_v1	5550	0	24	8.62155320674048	1	s1_v2 s2_v1 s2_vx
37	male	English	1.47725	2	sx_v2	s2_v1	s1_v2	s2_v1	2002	1	24	7.60190195987517	1	sx_v2 s2_v1 s1_v2
37	male	English	1.47725	3	s2_v2	s1_v2	s1_vx	s1_vx	3574	2	24	8.18144069571937	1	s2_v2 s1_v2 s1_vx
37	male	English	1.47725	3	s2_v2	s1_v2	s2_vx	s2_vx	1470	3	24	7.29301767977278	1	s2_v2 s1_v2 s2_vx
37	male	English	1.47725	3	s1_v1	s2_v1	s2_vx	s2_vx	1373	4	24	7.22475340576797	1	s1_v1 s2_v1 s2_vx
37	male	English	1.47725	3	s1_vx	sx_v2	s2_v1	s2_v1	1276	5	24	7.15148546390474	1	s1_vx sx_v2 s2_v1
37	male	English	1.47725	2	sx_v2	s1_v1	s2_vx	s1_v1	1248	6	24	7.12929754892937	1	sx_v2 s1_v1 s2_vx
37	male	English	1.47725	3	sx_v2	s1_v2	s1_v1	s1_v1	813	7	24	6.70073110954781	1	sx_v2 s1_v2 s1_v1
37	male	English	1.47725	2	s2_v2	s2_v1	sx_v2	s2_v1	582	8	24	6.36647044773144	1	s2_v2 s2_v1 sx_v2
37	male	English	1.47725	3	s2_v2	s2_v2	s1_v1	s1_v1	494	9	24	6.20253551718792	1	s2_v2 s2_v2 s1_v1
37	male	English	1.47725	2	s1_vx	sx_v1	s2_v2	sx_v1	556	10	24	6.32076829425058	1	s1_vx sx_v1 s2_v2
37	male	English	1.47725	1	sx_v2	s2_v1	s2_v1	sx_v2	545	11	24	6.30078579466324	1	sx_v2 s2_v1 s2_v1
37	male	English	1.47725	2	sx_vx	s2_v1	s1_v2	s2_v1	469	12	24	6.15060276844628	1	sx_vx s2_v1 s1_v2
37	male	English	1.47725	1	sx_v1	s1_v2	s1_v2	sx_v1	557	13	24	6.32256523992728	1	sx_v1 s1_v2 s1_v2
37	male	English	1.47725	2	s1_v2	s2_v1	s1_vx	s2_v1	568	14	24	6.34212141872115	2	s1_v2 s2_v1 s1_vx
37	male	English	1.47725	1	s2_vx	s2_v1	s1_v1	s2_vx	556	15	24	6.32076829425058	2	s2_vx s2_v1 s1_v1
37	male	English	1.47725	2	s1_v1	s2_v2	sx_v2	s2_v2	506	16	24	6.22653666928747	2	s1_v1 s2_v2 sx_v2
37	male	English	1.47725	3	sx_v2	s1_v1	s1_v2	s1_v2	543	17	24	6.29710931993394	2	sx_v2 s1_v1 s1_v2
37	male	English	1.47725	2	s2_v2	s2_v1	sx_v1	s2_v1	546	18	24	6.30261897574491	2	s2_v2 s2_v1 sx_v1
37	male	English	1.47725	2	s2_v1	s1_v2	s1_vx	s1_v2	555	19	24	6.31896811374643	2	s2_v1 s1_v2 s1_vx
37	male	English	1.47725	3	s2_v1	sx_vx	s1_v2	s1_v2	520	20	24	6.25382881157547	2	s2_v1 sx_vx s1_v2
37	male	English	1.47725	2	s2_v1	sx_v2	s2_v2	sx_v2	521	21	24	6.25575004175337	2	s2_v1 sx_v2 s2_v2
37	male	English	1.47725	2	s1_v1	s2_v1	s1_vx	s2_v1	986	22	24	6.89365635460264	2	s1_v1 s2_v1 s1_vx
37	male	English	1.47725	1	s2_vx	s1_v2	sx_v1	s2_vx	977	23	24	6.88448665204278	2	s2_vx s1_v2 sx_v1
37	male	English	1.47725	2	s2_v1	s2_v1	sx_v2	s2_v1	704	24	24	6.55677835615804	2	s2_v1 s2_v1 sx_v2
37	male	English	1.47725	2	s2_v2	sx_vx	s1_v1	sx_vx	44300	25	24	10.6987399560332	2	s2_v2 sx_vx s1_v1
60	male	english	2.38221666666667	2	sx_vx	s1_v2	s2_v1	s1_v2	19110	0	25	9.85796703723432	1	sx_vx s1_v2 s2_v1
60	male	english	2.38221666666667	2	sx_v1	s1_v2	s1_v2	s1_v2	13722	1	25	9.52675566325084	1	sx_v1 s1_v2 s1_v2
60	male	english	2.38221666666667	2	s2_v1	s1_v1	s2_vx	s1_v1	5688	2	25	8.64611397148308	1	s2_v1 s1_v1 s2_vx
60	male	english	2.38221666666667	3	s1_v2	s2_v1	sx_v2	sx_v2	5205	3	25	8.55737498104907	1	s1_v2 s2_v1 sx_v2
60	male	english	2.38221666666667	3	s1_v1	s2_v2	s1_vx	s1_vx	7304	4	25	8.89617742227481	1	s1_v1 s2_v2 s1_vx
60	male	english	2.38221666666667	3	s2_vx	s1_v2	sx_v1	sx_v1	2717	5	25	7.90728360942635	1	s2_vx s1_v2 sx_v1
60	male	english	2.38221666666667	3	s1_v1	sx_v2	s2_v2	s2_v2	2888	6	25	7.96831950001272	1	s1_v1 sx_v2 s2_v2
60	male	english	2.38221666666667	3	s2_vx	s1_v1	sx_v2	sx_v2	1678	7	25	7.42535788702715	1	s2_vx s1_v1 sx_v2
60	male	english	2.38221666666667	1	s2_v2	sx_v2	s1_v1	s2_v2	2360	8	25	7.76641689801966	1	s2_v2 sx_v2 s1_v1
60	male	english	2.38221666666667	2	s2_v1	s1_vx	sx_v2	s1_vx	4560	9	25	8.42507790250843	1	s2_v1 s1_vx sx_v2
60	male	english	2.38221666666667	3	s1_v2	s1_vx	s2_v1	s2_v1	2968	10	25	7.99564360428727	1	s1_v2 s1_vx s2_v1
60	male	english	2.38221666666667	2	s2_v1	s1_v2	s1_vx	s1_v2	3408	11	25	8.13388088794921	1	s2_v1 s1_v2 s1_vx
60	male	english	2.38221666666667	2	s1_v2	s2_v2	s1_vx	s2_v2	3334	12	25	8.11192806331074	1	s1_v2 s2_v2 s1_vx
60	male	english	2.38221666666667	1	sx_v1	s1_v1	s1_v2	sx_v1	1791	13	25	7.49052940206071	1	sx_v1 s1_v1 s1_v2
60	male	english	2.38221666666667	1	s2_v1	s1_vx	s1_v1	s2_v1	1975	14	25	7.58832367733522	2	s2_v1 s1_vx s1_v1
60	male	english	2.38221666666667	2	s1_v2	s2_vx	s2_v1	s2_vx	1984	15	25	7.59287028784482	2	s1_v2 s2_vx s2_v1
60	male	english	2.38221666666667	3	s1_v1	s2_v2	s2_v2	s2_v2	2255	16	25	7.72090525193678	2	s1_v1 s2_v2 s2_v2
60	male	english	2.38221666666667	2	s2_v2	s1_v2	s1_vx	s1_v2	1696	17	25	7.43602781635185	2	s2_v2 s1_v2 s1_vx
60	male	english	2.38221666666667	1	s2_v1	sx_vx	s1_v2	s2_v1	2183	18	25	7.68845535654994	2	s2_v1 sx_vx s1_v2
60	male	english	2.38221666666667	2	s1_vx	s2_v2	s1_v2	s2_v2	2088	19	25	7.64396194900253	2	s1_vx s2_v2 s1_v2
60	male	english	2.38221666666667	1	s2_v1	s1_v2	s2_vx	s2_v1	1791	20	25	7.49052940206071	2	s2_v1 s1_v2 s2_vx
60	male	english	2.38221666666667	1	s2_v1	s1_v2	s2_v1	s2_v1	1792	21	25	7.49108759353488	2	s2_v1 s1_v2 s2_v1
60	male	english	2.38221666666667	2	s2_v1	s2_vx	s1_v2	s2_vx	1472	22	25	7.29437729928882	2	s2_v1 s2_vx s1_v2
60	male	english	2.38221666666667	3	s2_v2	s1_vx	sx_v1	sx_v1	1568	23	25	7.35755620091035	2	s2_v2 s1_vx sx_v1
60	male	english	2.38221666666667	1	s1_vx	s2_v1	s1_v2	s1_vx	1713	24	25	7.44600149832412	2	s1_vx s2_v1 s1_v2
60	male	english	2.38221666666667	2	s1_v1	s2_v1	s2_vx	s2_v1	1143	25	25	7.04141166379481	2	s1_v1 s2_v1 s2_vx
34	female	English	4.22328333333333	2	sx_v2	s2_v2	s1_v1	s2_v2	6645	0	26	8.80161997114735	1	sx_v2 s2_v2 s1_v1
34	female	English	4.22328333333333	2	s2_v1	s1_v1	s1_vx	s1_v1	1453	1	26	7.28138566357028	1	s2_v1 s1_v1 s1_vx
34	female	English	4.22328333333333	2	s2_v2	s1_v1	sx_vx	s1_v1	198	2	26	5.28826703069454	1	s2_v2 s1_v1 sx_vx
34	female	English	4.22328333333333	1	s1_v2	sx_v1	s2_v1	s1_v2	2373	3	26	7.77191025643576	1	s1_v2 sx_v1 s2_v1
34	female	English	4.22328333333333	2	sx_v1	s1_v1	s2_v2	s1_v1	973	4	26	6.880384082186	1	sx_v1 s1_v1 s2_v2
34	female	English	4.22328333333333	1	s2_v2	s2_v1	sx_v1	s2_v2	854	5	26	6.74993119378857	1	s2_v2 s2_v1 sx_v1
34	female	English	4.22328333333333	3	s2_v2	sx_v1	s2_v2	s2_v2	1043	6	26	6.94985645500077	1	s2_v2 sx_v1 s2_v2
34	female	English	4.22328333333333	2	sx_v1	s2_v1	s1_v2	s2_v1	983	7	26	6.89060912014717	1	sx_v1 s2_v1 s1_v2
34	female	English	4.22328333333333	2	sx_v1	s2_vx	s1_v2	s2_vx	869	8	26	6.76734312526539	1	sx_v1 s2_vx s1_v2
34	female	English	4.22328333333333	1	s1_v2	s1_v2	s2_v1	s1_v2	857	9	26	6.75343791859778	1	s1_v2 s1_v2 s2_v1
34	female	English	4.22328333333333	1	s1_vx	s2_v2	s1_v1	s1_vx	782	10	26	6.66185474054531	1	s1_vx s2_v2 s1_v1
34	female	English	4.22328333333333	3	s1_v1	s2_v2	s1_vx	s1_vx	883	11	26	6.78332520060396	1	s1_v1 s2_v2 s1_vx
34	female	English	4.22328333333333	2	s2_v2	s1_vx	sx_v1	s1_vx	807	12	26	6.69332366826995	1	s2_v2 s1_vx sx_v1
34	female	English	4.22328333333333	1	s1_v1	s2_vx	s2_v1	s1_v1	833	13	26	6.72503364216684	1	s1_v1 s2_vx s2_v1
34	female	English	4.22328333333333	2	s1_vx	s1_v1	s2_v2	s1_v1	821	14	26	6.71052310945243	2	s1_vx s1_v1 s2_v2
34	female	English	4.22328333333333	3	s1_vx	sx_v1	s2_v2	s2_v2	807	15	26	6.69332366826995	2	s1_vx sx_v1 s2_v2
34	female	English	4.22328333333333	1	s2_v2	s1_v1	s1_vx	s2_v2	1020	16	26	6.92755790627832	2	s2_v2 s1_v1 s1_vx
34	female	English	4.22328333333333	2	s2_v1	sx_v2	s1_vx	sx_v2	820	17	26	6.7093043402583	2	s2_v1 sx_v2 s1_vx
34	female	English	4.22328333333333	3	s1_v1	sx_vx	s2_v2	s2_v2	844	18	26	6.73815249459596	2	s1_v1 sx_vx s2_v2
34	female	English	4.22328333333333	1	s2_vx	s2_v1	s1_v2	s2_vx	1516	19	26	7.32383056620232	2	s2_vx s2_v1 s1_v2
34	female	English	4.22328333333333	1	s2_v2	s2_v1	sx_v2	s2_v2	784	20	26	6.66440902035041	2	s2_v2 s2_v1 sx_v2
34	female	English	4.22328333333333	2	sx_v1	s1_v2	s1_v1	s1_v2	993	21	26	6.90073066404517	2	sx_v1 s1_v2 s1_v1
34	female	English	4.22328333333333	1	s2_v2	s2_vx	s1_v1	s2_v2	796	22	26	6.67959918584438	2	s2_v2 s2_vx s1_v1
34	female	English	4.22328333333333	2	sx_v1	s2_v2	s2_v1	s2_v2	820	23	26	6.7093043402583	2	sx_v1 s2_v2 s2_v1
34	female	English	4.22328333333333	1	s1_v2	s1_v1	sx_v2	s1_v2	823	24	26	6.71295620067707	2	s1_v2 s1_v1 sx_v2
34	female	English	4.22328333333333	3	s1_vx	s2_v1	s1_v2	s1_v2	1214	25	26	7.10167597161944	2	s1_vx s2_v1 s1_v2
22	Female	English	1.11466666666667	1	sx_v2	s2_v1	s1_v2	sx_v2	5678	0	27	8.64435433703292	1	sx_v2 s2_v1 s1_v2
22	Female	English	1.11466666666667	2	s2_v2	s1_v1	s1_v1	s1_v1	3035	1	27	8.0179667034936	1	s2_v2 s1_v1 s1_v1
22	Female	English	1.11466666666667	1	s1_v2	s1_v2	sx_v1	s1_v2	2169	2	27	7.68202151082687	1	s1_v2 s1_v2 sx_v1
22	Female	English	1.11466666666667	2	s1_v2	sx_v1	s1_v2	sx_v1	2501	3	27	7.82444593087762	1	s1_v2 sx_v1 s1_v2
22	Female	English	1.11466666666667	1	s1_vx	s2_v1	s1_v2	s1_vx	1119	4	27	7.02019070831193	1	s1_vx s2_v1 s1_v2
22	Female	English	1.11466666666667	3	s2_v2	s2_v2	s1_v1	s1_v1	1554	5	27	7.34858753092759	1	s2_v2 s2_v2 s1_v1
22	Female	English	1.11466666666667	1	sx_v1	s2_v1	s2_v2	sx_v1	2837	6	27	7.95050243480885	1	sx_v1 s2_v1 s2_v2
22	Female	English	1.11466666666667	1	s2_vx	s1_v1	s2_v2	s2_vx	1820	7	27	7.50659178007084	1	s2_vx s1_v1 s2_v2
22	Female	English	1.11466666666667	3	sx_v1	s1_v2	s2_vx	s2_vx	1715	8	27	7.44716835960004	1	sx_v1 s1_v2 s2_vx
22	Female	English	1.11466666666667	1	s2_v1	s1_v2	s2_v1	s2_v1	925	9	27	6.82979373751242	1	s2_v1 s1_v2 s2_v1
22	Female	English	1.11466666666667	3	s1_v1	s2_v2	s1_vx	s1_vx	1443	10	27	7.27447955877387	1	s1_v1 s2_v2 s1_vx
22	Female	English	1.11466666666667	1	sx_v1	s2_vx	s1_v2	sx_v1	1256	11	27	7.13568734702814	1	sx_v1 s2_vx s1_v2
22	Female	English	1.11466666666667	1	s2_v2	sx_vx	s1_v1	s2_v2	1449	12	27	7.27862894232068	1	s2_v2 sx_vx s1_v1
22	Female	English	1.11466666666667	1	s1_v1	s2_v2	s2_v2	s1_v1	1197	13	27	7.08757370555797	1	s1_v1 s2_v2 s2_v2
22	Female	English	1.11466666666667	3	s1_v1	sx_vx	s2_v2	s2_v2	1514	14	27	7.32251043399739	2	s1_v1 sx_vx s2_v2
22	Female	English	1.11466666666667	3	s2_v2	s1_v1	sx_v2	sx_v2	776	15	27	6.65415252018322	2	s2_v2 s1_v1 sx_v2
22	Female	English	1.11466666666667	2	s1_vx	sx_v1	s2_v2	sx_v1	1479	16	27	7.2991214627108	2	s1_vx sx_v1 s2_v2
22	Female	English	1.11466666666667	3	s2_v2	s1_v1	sx_vx	sx_vx	862	17	27	6.75925527066369	2	s2_v2 s1_v1 sx_vx
22	Female	English	1.11466666666667	1	s1_v1	s2_vx	sx_v2	s1_v1	1310	18	27	7.1777824161952	2	s1_v1 s2_vx sx_v2
22	Female	English	1.11466666666667	3	s1_v1	s1_v2	sx_v2	sx_v2	1372	19	27	7.22402480828583	2	s1_v1 s1_v2 sx_v2
22	Female	English	1.11466666666667	2	s1_v1	sx_v1	s2_v2	sx_v1	1018	20	27	6.92559519711047	2	s1_v1 sx_v1 s2_v2
22	Female	English	1.11466666666667	2	s2_v1	sx_v2	s2_v1	sx_v2	1270	21	27	7.14677217945264	2	s2_v1 sx_v2 s2_v1
22	Female	English	1.11466666666667	3	s1_v2	s1_v1	sx_v2	sx_v2	1591	22	27	7.37211802833779	2	s1_v2 s1_v1 sx_v2
22	Female	English	1.11466666666667	3	s2_v1	s2_v1	sx_v2	sx_v2	1340	23	27	7.20042489294496	2	s2_v1 s2_v1 sx_v2
22	Female	English	1.11466666666667	3	s2_v1	s1_v1	s2_vx	s2_vx	2344	24	27	7.7596141506969	2	s2_v1 s1_v1 s2_vx
22	Female	English	1.11466666666667	3	s1_v2	sx_v2	s1_v1	s1_v1	1412	25	27	7.25276241805319	2	s1_v2 sx_v2 s1_v1
28	Male	English	1.34365	2	s1_vx	s2_v1	sx_v2	s2_v1	5927	0	28	8.68727346178784	1	s1_vx s2_v1 sx_v2
28	Male	English	1.34365	2	s1_v2	s1_v2	sx_v1	s1_v2	8161	1	28	9.00712198946924	1	s1_v2 s1_v2 sx_v1
28	Male	English	1.34365	1	sx_vx	s1_v1	s2_v2	sx_vx	9296	2	28	9.13733947909169	1	sx_vx s1_v1 s2_v2
28	Male	English	1.34365	2	s2_v1	sx_v2	s1_v2	sx_v2	5951	3	28	8.69131455164485	1	s2_v1 sx_v2 s1_v2
28	Male	English	1.34365	3	s1_v2	s2_v1	s1_vx	s1_vx	3520	4	28	8.16621626859214	1	s1_v2 s2_v1 s1_vx
28	Male	English	1.34365	1	s1_vx	s2_v2	sx_v1	s1_vx	2616	5	28	7.86940171257709	1	s1_vx s2_v2 sx_v1
28	Male	English	1.34365	2	s1_v1	s1_v2	sx_v1	s1_v2	2431	6	28	7.79605797431612	1	s1_v1 s1_v2 sx_v1
28	Male	English	1.34365	1	s2_v2	sx_v1	s2_v1	s2_v2	1968	7	28	7.5847730776122	1	s2_v2 sx_v1 s2_v1
28	Male	English	1.34365	2	s1_vx	s1_v1	s2_v1	s1_v1	4176	8	28	8.33710912956247	1	s1_vx s1_v1 s2_v1
28	Male	English	1.34365	1	s1_v2	s2_v1	s2_v1	s1_v2	2896	9	28	7.97108575350561	1	s1_v2 s2_v1 s2_v1
28	Male	English	1.34365	3	s1_v1	s2_v2	s1_v1	s1_v1	1184	10	28	7.07665381544395	1	s1_v1 s2_v2 s1_v1
28	Male	English	1.34365	3	s2_v1	s2_vx	s1_v2	s1_v2	1328	11	28	7.19142933003638	1	s2_v1 s2_vx s1_v2
28	Male	English	1.34365	2	s2_v1	s1_vx	s1_v1	s1_vx	808	12	28	6.69456205852109	1	s2_v1 s1_vx s1_v1
28	Male	English	1.34365	1	s1_v1	sx_v1	s1_v2	s1_v1	656	13	28	6.48616078894409	1	s1_v1 sx_v1 s1_v2
28	Male	English	1.34365	3	s2_vx	s2_v1	s1_v2	s1_v2	1000	14	28	6.90775527898214	2	s2_vx s2_v1 s1_v2
28	Male	English	1.34365	2	s1_v1	s1_v2	sx_v2	s1_v2	1136	15	28	7.0352685992811	2	s1_v1 s1_v2 sx_v2
28	Male	English	1.34365	2	s1_v2	s2_v1	sx_vx	s2_v1	183	16	28	5.20948615284142	2	s1_v2 s2_v1 sx_vx
28	Male	English	1.34365	3	s2_v1	sx_v2	s2_v1	s2_v1	2728	17	28	7.91132401896335	2	s2_v1 sx_v2 s2_v1
28	Male	English	1.34365	1	s1_v1	s2_v2	sx_vx	s1_v1	904	18	28	6.80682936039218	2	s1_v1 s2_v2 sx_vx
28	Male	English	1.34365	3	s2_v1	sx_v2	s1_vx	s1_vx	816	19	28	6.70441435496411	2	s2_v1 sx_v2 s1_vx
28	Male	English	1.34365	1	s1_v2	sx_vx	s2_v1	s1_v2	783	20	28	6.6631326959908	2	s1_v2 sx_vx s2_v1
28	Male	English	1.34365	2	s1_v1	s1_v1	sx_v2	s1_v1	959	21	28	6.86589107488344	2	s1_v1 s1_v1 sx_v2
28	Male	English	1.34365	3	sx_v1	s2_v2	s2_v2	s2_v2	1448	22	28	7.27793857294566	2	sx_v1 s2_v2 s2_v2
28	Male	English	1.34365	2	s2_v2	s1_v1	s2_v2	s1_v1	744	23	28	6.61204103483309	2	s2_v2 s1_v1 s2_v2
28	Male	English	1.34365	1	s1_vx	s1_v1	s2_v2	s1_vx	1240	24	28	7.12286665859908	2	s1_vx s1_v1 s2_v2
28	Male	English	1.34365	2	s2_v1	s1_v2	s1_v2	s1_v2	911	25	28	6.81454289725996	2	s2_v1 s1_v2 s1_v2
23	female	English	4.65316666666667	3	s1_vx	s1_v2	s2_v2	s2_v2	9094	0	29	9.11537013438496	1	s1_vx s1_v2 s2_v2
23	female	English	4.65316666666667	1	s2_v1	sx_v2	s1_vx	s2_v1	7189	1	29	8.88030735898387	1	s2_v1 sx_v2 s1_vx
23	female	English	4.65316666666667	2	s1_v2	s2_vx	s2_v2	s2_vx	2245	2	29	7.71646080017636	1	s1_v2 s2_vx s2_v2
23	female	English	4.65316666666667	3	s2_v2	s2_v1	sx_v1	sx_v1	1938	3	29	7.56941179245071	1	s2_v2 s2_v1 sx_v1
23	female	English	4.65316666666667	1	s2_v2	s1_v2	s1_vx	s2_v2	3649	4	29	8.20220843643645	1	s2_v2 s1_v2 s1_vx
23	female	English	4.65316666666667	2	s2_vx	s1_v1	sx_v2	s1_v1	6306	5	29	8.74925684010501	1	s2_vx s1_v1 sx_v2
23	female	English	4.65316666666667	2	s1_v1	s2_v1	s1_vx	s2_v1	3371	6	29	8.12296471523406	1	s1_v1 s2_v1 s1_vx
23	female	English	4.65316666666667	3	s2_v2	s1_vx	sx_v1	sx_v1	2868	7	29	7.96137020171951	1	s2_v2 s1_vx sx_v1
23	female	English	4.65316666666667	2	s1_v1	sx_vx	s2_v2	sx_vx	4803	8	29	8.47699600166482	1	s1_v1 sx_vx s2_v2
23	female	English	4.65316666666667	1	sx_v2	s1_v1	s2_vx	sx_v2	2738	9	29	7.91498300584839	1	sx_v2 s1_v1 s2_vx
23	female	English	4.65316666666667	3	sx_v2	s2_v1	s1_vx	s1_vx	16002	10	29	9.68046899341007	1	sx_v2 s2_v1 s1_vx
23	female	English	4.65316666666667	2	s2_v2	sx_v2	s1_v1	sx_v2	5128	11	29	8.54247099860051	1	s2_v2 sx_v2 s1_v1
23	female	English	4.65316666666667	2	s2_vx	sx_v2	s1_v1	sx_v2	7284	12	29	8.8934354408475	1	s2_vx sx_v2 s1_v1
23	female	English	4.65316666666667	3	s2_v2	s2_v2	sx_v1	sx_v1	3376	13	29	8.12444685571585	1	s2_v2 s2_v2 sx_v1
23	female	English	4.65316666666667	1	s1_vx	sx_v2	s2_v1	s1_vx	2865	14	29	7.96032362914884	2	s1_vx sx_v2 s2_v1
23	female	English	4.65316666666667	2	s1_v2	s2_v1	s2_vx	s2_v1	2535	15	29	7.83794891602528	2	s1_v2 s2_v1 s2_vx
23	female	English	4.65316666666667	2	sx_v2	s1_v1	s2_v2	s1_v1	2886	16	29	7.96762673933382	2	sx_v2 s1_v1 s2_v2
23	female	English	4.65316666666667	3	sx_v2	s1_v2	s2_v1	s2_v1	2917	17	29	7.97831096986772	2	sx_v2 s1_v2 s2_v1
23	female	English	4.65316666666667	1	s1_v2	s2_vx	s2_v1	s1_v2	3974	18	29	8.28752842311176	2	s1_v2 s2_vx s2_v1
23	female	English	4.65316666666667	2	s2_v2	s1_v1	sx_v2	s1_v1	2378	19	29	7.77401507725073	2	s2_v2 s1_v1 sx_v2
23	female	English	4.65316666666667	1	s1_v1	s2_v2	sx_v2	s1_v1	2285	20	29	7.7341213033283	2	s1_v1 s2_v2 sx_v2
23	female	English	4.65316666666667	3	s2_v2	s2_v2	s1_v1	s1_v1	2544	21	29	7.84149292446001	2	s2_v2 s2_v2 s1_v1
23	female	English	4.65316666666667	3	s1_v2	s2_v2	s2_vx	s2_vx	10761	22	29	9.28368376620039	2	s1_v2 s2_v2 s2_vx
23	female	English	4.65316666666667	1	sx_v1	s1_v2	s1_v2	sx_v1	2606	23	29	7.86557175768479	2	sx_v1 s1_v2 s1_v2
23	female	English	4.65316666666667	2	s2_v2	sx_v2	s2_v1	sx_v2	5313	24	29	8.57791192645094	2	s2_v2 sx_v2 s2_v1
23	female	English	4.65316666666667	2	s1_v1	sx_v2	s2_vx	sx_v2	2591	25	29	7.85979918056211	2	s1_v1 sx_v2 s2_vx
29	Female	English	1.44953333333333	2	s1_vx	s2_v2	s1_v2	s2_v2	6152	0	30	8.72453251118548	1	s1_vx s2_v2 s1_v2
29	Female	English	1.44953333333333	3	s1_v1	s1_vx	s2_v1	s2_v1	4977	1	30	8.51258257885855	1	s1_v1 s1_vx s2_v1
29	Female	English	1.44953333333333	1	s2_vx	s2_v1	s1_v2	s2_vx	5224	2	30	8.56101867095627	1	s2_vx s2_v1 s1_v2
29	Female	English	1.44953333333333	1	sx_v2	s1_v1	s2_v2	sx_v2	1616	3	30	7.38770923908104	1	sx_v2 s1_v1 s2_v2
29	Female	English	1.44953333333333	2	s1_v1	s2_v2	s1_v1	s2_v2	3023	4	30	8.01400499477946	1	s1_v1 s2_v2 s1_v1
29	Female	English	1.44953333333333	3	s2_v1	s1_v2	sx_v2	sx_v2	2399	5	30	7.78280726283969	1	s2_v1 s1_v2 sx_v2
29	Female	English	1.44953333333333	2	s1_v2	sx_v1	s1_v2	sx_v1	2511	6	30	7.82843635915759	1	s1_v2 sx_v1 s1_v2
29	Female	English	1.44953333333333	3	s1_vx	s2_v2	s1_v1	s1_v1	3079	7	30	8.0323601479245	1	s1_vx s2_v2 s1_v1
29	Female	English	1.44953333333333	2	s1_v2	s2_v1	s1_v2	s2_v1	2129	8	30	7.66340766489348	1	s1_v2 s2_v1 s1_v2
29	Female	English	1.44953333333333	3	s1_v2	s1_v1	sx_v1	sx_v1	1265	9	30	7.14282740116162	1	s1_v2 s1_v1 sx_v1
29	Female	English	1.44953333333333	1	sx_v2	s1_v2	s1_v1	sx_v2	3088	10	30	8.03527891114467	1	sx_v2 s1_v2 s1_v1
29	Female	English	1.44953333333333	1	s2_v2	sx_v1	s1_vx	s2_v2	3432	11	30	8.14089846060785	1	s2_v2 sx_v1 s1_vx
29	Female	English	1.44953333333333	2	sx_v2	s1_v1	s1_v2	s1_v1	2936	12	30	7.98480338973441	1	sx_v2 s1_v1 s1_v2
29	Female	English	1.44953333333333	1	s2_v1	s1_v2	s1_v2	s2_v1	2112	13	30	7.65539064482615	1	s2_v1 s1_v2 s1_v2
29	Female	English	1.44953333333333	2	s1_vx	sx_v1	s2_v2	sx_v1	1592	14	30	7.37274636640433	2	s1_vx sx_v1 s2_v2
29	Female	English	1.44953333333333	1	s2_v2	s1_vx	s1_v1	s2_v2	2680	15	30	7.8935720735049	2	s2_v2 s1_vx s1_v1
29	Female	English	1.44953333333333	1	sx_v2	s2_v1	s1_v2	sx_v2	2121	16	30	7.65964295456468	2	sx_v2 s2_v1 s1_v2
29	Female	English	1.44953333333333	2	s2_v2	sx_v2	s1_v1	sx_v2	1257	17	30	7.13648320859025	2	s2_v2 sx_v2 s1_v1
29	Female	English	1.44953333333333	1	sx_v2	s1_v2	s2_v1	sx_v2	1704	18	30	7.44073370738926	2	sx_v2 s1_v2 s2_v1
29	Female	English	1.44953333333333	1	sx_v2	s1_v1	s1_v1	sx_v2	1120	19	30	7.02108396428914	2	sx_v2 s1_v1 s1_v1
29	Female	English	1.44953333333333	1	sx_v1	s1_v2	s2_v1	sx_v1	2439	20	30	7.79934339821592	2	sx_v1 s1_v2 s2_v1
29	Female	English	1.44953333333333	1	s1_vx	s2_v1	s1_v1	s1_vx	1191	21	30	7.0825485693553	2	s1_vx s2_v1 s1_v1
29	Female	English	1.44953333333333	3	s1_v1	s1_vx	s2_v2	s2_v2	1792	22	30	7.49108759353488	2	s1_v1 s1_vx s2_v2
29	Female	English	1.44953333333333	1	sx_v2	s2_v1	s2_v2	sx_v2	1864	23	30	7.53047999524554	2	sx_v2 s2_v1 s2_v2
29	Female	English	1.44953333333333	1	sx_v1	s2_v1	s1_v2	sx_v1	1440	24	30	7.27239839257005	2	sx_v1 s2_v1 s1_v2
29	Female	English	1.44953333333333	2	s2_v2	s1_v1	s2_v2	s1_v1	1712	25	30	7.44541755670169	2	s2_v2 s1_v1 s2_v2
33	Female	English	1.45718333333333	3	s1_v1	s2_v2	sx_v2	sx_v2	11239	0	31	9.32714515151827	1	s1_v1 s2_v2 sx_v2
33	Female	English	1.45718333333333	2	s1_v2	s2_v1	s1_v2	s2_v1	3553	1	31	8.17554759602103	1	s1_v2 s2_v1 s1_v2
33	Female	English	1.45718333333333	1	s2_v1	s1_vx	sx_v2	s2_v1	2691	2	31	7.89766815072691	1	s2_v1 s1_vx sx_v2
33	Female	English	1.45718333333333	1	sx_v2	s2_vx	s1_v1	sx_v2	4551	3	31	8.42310226801664	1	sx_v2 s2_vx s1_v1
33	Female	English	1.45718333333333	1	sx_v1	s2_v1	s1_v2	sx_v1	2003	4	31	7.60240133566582	1	sx_v1 s2_v1 s1_v2
33	Female	English	1.45718333333333	3	sx_v1	s1_v2	s1_v1	s1_v1	1357	5	31	7.21303165983487	1	sx_v1 s1_v2 s1_v1
33	Female	English	1.45718333333333	1	sx_v1	s1_v2	s2_v1	sx_v1	1575	6	31	7.36201055125973	1	sx_v1 s1_v2 s2_v1
33	Female	English	1.45718333333333	2	s1_v1	s2_v2	s1_vx	s2_v2	854	7	31	6.74993119378857	1	s1_v1 s2_v2 s1_vx
33	Female	English	1.45718333333333	1	s2_v2	s1_v1	s1_vx	s2_v2	1346	8	31	7.20489251020467	1	s2_v2 s1_v1 s1_vx
33	Female	English	1.45718333333333	2	s1_v2	sx_v1	s1_v1	sx_v1	1014	9	31	6.92165818415113	1	s1_v2 sx_v1 s1_v1
33	Female	English	1.45718333333333	2	sx_v2	s2_v1	s2_v2	s2_v1	914	10	31	6.81783057145415	1	sx_v2 s2_v1 s2_v2
33	Female	English	1.45718333333333	3	s2_v1	sx_v2	s1_v2	s1_v2	902	11	31	6.80461452006262	1	s2_v1 sx_v2 s1_v2
33	Female	English	1.45718333333333	3	s1_vx	sx_v2	s2_v1	s2_v1	1414	12	31	7.25417784645652	1	s1_vx sx_v2 s2_v1
33	Female	English	1.45718333333333	2	s2_vx	s2_v2	s1_v2	s2_v2	1234	13	31	7.11801620446533	1	s2_vx s2_v2 s1_v2
33	Female	English	1.45718333333333	1	sx_v1	s1_vx	s2_v2	sx_v1	1241	14	31	7.12367278520461	2	sx_v1 s1_vx s2_v2
33	Female	English	1.45718333333333	2	s1_v2	s2_v2	s2_vx	s2_v2	1179	15	31	7.07242190053737	2	s1_v2 s2_v2 s2_vx
33	Female	English	1.45718333333333	2	s1_v1	sx_v2	s2_v2	sx_v2	1361	16	31	7.21597500265147	2	s1_v1 sx_v2 s2_v2
33	Female	English	1.45718333333333	1	s1_v1	s1_v1	sx_v2	s1_v1	1662	17	31	7.41577697541539	2	s1_v1 s1_v1 sx_v2
33	Female	English	1.45718333333333	3	s2_v2	s1_vx	s1_v2	s1_v2	1014	18	31	6.92165818415113	2	s2_v2 s1_vx s1_v2
33	Female	English	1.45718333333333	2	s1_v1	sx_v1	s1_v2	sx_v1	1485	19	31	7.3031700512368	2	s1_v1 sx_v1 s1_v2
33	Female	English	1.45718333333333	1	sx_v2	s1_v1	s2_vx	sx_v2	1855	20	31	7.52563997504154	2	sx_v2 s1_v1 s2_vx
33	Female	English	1.45718333333333	3	s2_v1	s1_vx	s1_v1	s1_v1	1283	21	31	7.15695636461564	2	s2_v1 s1_vx s1_v1
33	Female	English	1.45718333333333	1	s1_v1	s2_v2	s1_v1	s1_v1	999	22	31	6.90675477864855	2	s1_v1 s2_v2 s1_v1
33	Female	English	1.45718333333333	1	s2_v2	s1_v1	s2_v2	s2_v2	1162	23	31	7.05789793741186	2	s2_v2 s1_v1 s2_v2
33	Female	English	1.45718333333333	2	s2_v2	s2_v1	sx_v1	s2_v1	991	24	31	6.89871453432999	2	s2_v2 s2_v1 sx_v1
33	Female	English	1.45718333333333	3	sx_v2	s2_v1	s2_v1	s2_v1	1246	25	31	7.1276936993474	2	sx_v2 s2_v1 s2_v1
23	Male	ENGLISH	1.66585	2	s2_v1	s1_v2	sx_vx	s1_v2	2243	0	32	7.71556953452021	1	s2_v1 s1_v2 sx_vx
23	Male	ENGLISH	1.66585	3	s2_v1	s2_v2	sx_v2	sx_v2	609	1	32	6.4118182677099	1	s2_v1 s2_v2 sx_v2
23	Male	ENGLISH	1.66585	1	s1_v2	s2_v1	s2_v1	s1_v2	353	2	32	5.8664680569333	1	s1_v2 s2_v1 s2_v1
23	Male	ENGLISH	1.66585	2	sx_vx	s1_v1	s2_v2	s1_v1	351	3	32	5.86078622346587	1	sx_vx s1_v1 s2_v2
23	Male	ENGLISH	1.66585	3	sx_v1	s1_v2	s1_v2	s1_v2	167	4	32	5.11799381241676	1	sx_v1 s1_v2 s1_v2
23	Male	ENGLISH	1.66585	3	sx_v1	s2_v2	s2_v2	s2_v2	273	5	32	5.60947179518496	1	sx_v1 s2_v2 s2_v2
23	Male	ENGLISH	1.66585	1	s2_v2	sx_vx	s1_v1	s2_v2	672	6	32	6.51025834052315	1	s2_v2 sx_vx s1_v1
23	Male	ENGLISH	1.66585	2	s2_v1	s1_v2	s1_v2	s1_v2	783	7	32	6.6631326959908	1	s2_v1 s1_v2 s1_v2
23	Male	ENGLISH	1.66585	3	sx_v1	s2_vx	s1_v2	s1_v2	1625	8	32	7.39326309476384	1	sx_v1 s2_vx s1_v2
23	Male	ENGLISH	1.66585	3	s2_vx	s1_v1	s2_v2	s2_v2	718	9	32	6.57646956904822	1	s2_vx s1_v1 s2_v2
23	Male	ENGLISH	1.66585	2	s1_v1	s2_v2	s2_v2	s2_v2	873	10	32	6.7719355558396	1	s1_v1 s2_v2 s2_v2
23	Male	ENGLISH	1.66585	1	s2_v2	sx_v1	s1_vx	s2_v2	536	11	32	6.2841341610708	1	s2_v2 sx_v1 s1_vx
23	Male	ENGLISH	1.66585	2	s1_v1	s2_vx	s2_v2	s2_vx	713	12	32	6.5694814204143	1	s1_v1 s2_vx s2_v2
23	Male	ENGLISH	1.66585	3	s2_v1	s1_vx	s1_v1	s1_v1	599	13	32	6.39526159811545	1	s2_v1 s1_vx s1_v1
23	Male	ENGLISH	1.66585	3	sx_v2	s1_vx	s2_v1	s2_v1	399	14	32	5.98896141688986	2	sx_v2 s1_vx s2_v1
23	Male	ENGLISH	1.66585	3	sx_v1	s1_v1	s2_v2	s2_v2	600	15	32	6.39692965521615	2	sx_v1 s1_v1 s2_v2
23	Male	ENGLISH	1.66585	3	sx_v2	s2_v2	s2_v1	s2_v1	767	16	32	6.64248680136726	2	sx_v2 s2_v2 s2_v1
23	Male	ENGLISH	1.66585	2	s1_v2	s1_v2	s2_v1	s1_v2	519	17	32	6.25190388316589	2	s1_v2 s1_v2 s2_v1
23	Male	ENGLISH	1.66585	3	s2_v1	s2_v1	s1_v2	s1_v2	722	18	32	6.58202513889283	2	s2_v1 s2_v1 s1_v2
23	Male	ENGLISH	1.66585	3	s2_v2	s1_vx	s1_v2	s1_v2	1207	19	32	7.09589322109753	2	s2_v2 s1_vx s1_v2
23	Male	ENGLISH	1.66585	2	s1_v2	s2_v2	s1_vx	s2_v2	574	20	32	6.35262939631957	2	s1_v2 s2_v2 s1_vx
23	Male	ENGLISH	1.66585	2	sx_v1	s2_v2	s2_v1	s2_v2	1890	21	32	7.54433210805369	2	sx_v1 s2_v2 s2_v1
23	Male	ENGLISH	1.66585	3	s1_vx	s2_v1	sx_v2	sx_v2	998	22	32	6.90575327631146	2	s1_vx s2_v1 sx_v2
23	Male	ENGLISH	1.66585	2	s1_v1	s1_v1	s2_v2	s1_v1	408	23	32	6.01126717440416	2	s1_v1 s1_v1 s2_v2
23	Male	ENGLISH	1.66585	3	s1_v2	sx_v1	s2_v1	s2_v1	963	24	32	6.87005341179813	2	s1_v2 sx_v1 s2_v1
23	Male	ENGLISH	1.66585	2	s1_v1	s1_vx	s2_v2	s1_vx	2842	25	32	7.95226330865705	2	s1_v1 s1_vx s2_v2
35	Male	English	3.54013333333333	1	s1_v2	s2_v1	s2_v1	s1_v2	5411	0	33	8.59618919764273	1	s1_v2 s2_v1 s2_v1
35	Male	English	3.54013333333333	3	sx_v2	s1_vx	s2_v1	s2_v1	6583	1	33	8.79224584746788	1	sx_v2 s1_vx s2_v1
35	Male	English	3.54013333333333	2	s2_v1	sx_v1	s1_v2	sx_v1	5681	2	33	8.64488255255713	1	s2_v1 sx_v1 s1_v2
35	Male	English	3.54013333333333	2	s2_vx	s1_v1	s2_v2	s1_v1	6566	3	33	8.78966009806154	1	s2_vx s1_v1 s2_v2
35	Male	English	3.54013333333333	1	s1_v2	s2_v1	sx_v1	s1_v2	2536	4	33	7.83834331555712	1	s1_v2 s2_v1 sx_v1
35	Male	English	3.54013333333333	3	s2_vx	s1_v2	s2_v2	s2_v2	1748	5	33	7.46622755621548	1	s2_vx s1_v2 s2_v2
35	Male	English	3.54013333333333	2	s2_v1	sx_v2	s1_vx	sx_v2	1691	6	33	7.43307534889858	1	s2_v1 sx_v2 s1_vx
35	Male	English	3.54013333333333	1	s2_v1	sx_v1	s2_v2	s2_v1	5415	7	33	8.59692815943509	1	s2_v1 sx_v1 s2_v2
35	Male	English	3.54013333333333	3	s1_vx	s1_v1	s2_v1	s2_v1	2343	8	33	7.7591874385078	1	s1_vx s1_v1 s2_v1
35	Male	English	3.54013333333333	1	s1_v2	sx_v2	s2_v1	s1_v2	2553	9	33	7.84502441724148	1	s1_v2 sx_v2 s2_v1
35	Male	English	3.54013333333333	2	s2_v1	s2_v1	sx_v2	s2_v1	1335	10	33	7.19668657083435	1	s2_v1 s2_v1 sx_v2
35	Male	English	3.54013333333333	2	s2_vx	s1_v2	sx_v1	s1_v2	2146	11	33	7.67136092319064	1	s2_vx s1_v2 sx_v1
35	Male	English	3.54013333333333	2	s1_vx	s2_v1	s1_v1	s2_v1	1085	12	33	6.98933526597456	1	s1_vx s2_v1 s1_v1
35	Male	English	3.54013333333333	1	s2_v1	s1_vx	sx_v2	s2_v1	1464	13	33	7.28892769452126	1	s2_v1 s1_vx sx_v2
35	Male	English	3.54013333333333	2	s1_v2	s1_v2	s2_v1	s1_v2	1776	14	33	7.48211892355212	2	s1_v2 s1_v2 s2_v1
35	Male	English	3.54013333333333	2	s1_v1	s1_v2	sx_v1	s1_v2	1055	15	33	6.96129604591017	2	s1_v1 s1_v2 sx_v1
35	Male	English	3.54013333333333	3	s2_vx	sx_v1	s1_v2	s1_v2	833	16	33	6.72503364216684	2	s2_vx sx_v1 s1_v2
35	Male	English	3.54013333333333	1	s1_v2	s1_vx	s2_v2	s1_v2	1255	17	33	7.13489085156588	2	s1_v2 s1_vx s2_v2
35	Male	English	3.54013333333333	2	s1_vx	s2_v1	sx_v2	s2_v1	2242	18	33	7.71512360363211	2	s1_vx s2_v1 sx_v2
35	Male	English	3.54013333333333	2	s1_v1	s1_v1	s2_v2	s1_v1	838	19	33	6.73101810048208	2	s1_v1 s1_v1 s2_v2
35	Male	English	3.54013333333333	2	sx_v1	s2_v2	s1_v1	s2_v2	936	20	33	6.84161547647759	2	sx_v1 s2_v2 s1_v1
35	Male	English	3.54013333333333	2	s1_vx	s1_v1	s2_v2	s1_v1	2319	21	33	7.74889133725553	2	s1_vx s1_v1 s2_v2
35	Male	English	3.54013333333333	3	sx_v2	s1_v1	s2_v2	s2_v2	1505	22	33	7.31654817718298	2	sx_v2 s1_v1 s2_v2
35	Male	English	3.54013333333333	3	s2_v1	sx_v2	s2_v2	s2_v2	665	23	33	6.49978704065585	2	s2_v1 sx_v2 s2_v2
35	Male	English	3.54013333333333	3	s2_v1	s1_vx	s1_v1	s1_v1	1280	24	33	7.15461535691366	2	s2_v1 s1_vx s1_v1
35	Male	English	3.54013333333333	3	sx_v1	s1_vx	s2_v2	s2_v2	623	25	33	6.43454651878745	2	sx_v1 s1_vx s2_v2
27	Male	English	3.08466666666667	2	s1_v2	s2_v1	sx_v2	s2_v1	9511	0	34	9.16020430248239	1	s1_v2 s2_v1 sx_v2
27	Male	English	3.08466666666667	2	sx_vx	s1_v1	s2_v2	s1_v1	40438	1	34	10.6075252159272	1	sx_vx s1_v1 s2_v2
27	Male	English	3.08466666666667	2	s2_v1	s1_v2	sx_v2	s1_v2	10073	2	34	9.21761385594268	1	s2_v1 s1_v2 sx_v2
27	Male	English	3.08466666666667	1	s1_vx	s1_v1	s2_v2	s1_vx	11656	3	34	9.36357634787504	1	s1_vx s1_v1 s2_v2
27	Male	English	3.08466666666667	2	sx_vx	s1_v2	s2_v1	s1_v2	3408	4	34	8.13388088794921	1	sx_vx s1_v2 s2_v1
27	Male	English	3.08466666666667	2	sx_vx	s2_v2	s1_v1	s2_v2	1095	5	34	6.9985096422506	1	sx_vx s2_v2 s1_v1
27	Male	English	3.08466666666667	2	sx_v2	s2_v1	s2_v2	s2_v1	887	6	34	6.78784498230958	1	sx_v2 s2_v1 s2_v2
27	Male	English	3.08466666666667	3	s1_v1	s2_vx	sx_v2	sx_v2	513	7	34	6.24027584517077	1	s1_v1 s2_vx sx_v2
27	Male	English	3.08466666666667	2	s2_v2	s2_v1	sx_v1	s2_v1	408	8	34	6.01126717440416	1	s2_v2 s2_v1 sx_v1
27	Male	English	3.08466666666667	1	s2_v1	s1_vx	s1_v2	s2_v1	423	9	34	6.04737217904628	1	s2_v1 s1_vx s1_v2
27	Male	English	3.08466666666667	2	sx_v1	s2_vx	s1_v2	s2_vx	352	10	34	5.8636311755981	1	sx_v1 s2_vx s1_v2
27	Male	English	3.08466666666667	3	s1_v1	s1_v1	sx_v2	sx_v2	384	11	34	5.95064255258773	1	s1_v1 s1_v1 sx_v2
27	Male	English	3.08466666666667	2	s2_v2	s1_vx	s1_v1	s1_vx	320	12	34	5.76832099579377	1	s2_v2 s1_vx s1_v1
27	Male	English	3.08466666666667	1	s1_v2	s2_vx	sx_v1	s1_v2	369	13	34	5.91079664404053	1	s1_v2 s2_vx sx_v1
27	Male	English	3.08466666666667	2	s2_v2	s1_vx	sx_v1	s1_vx	439	14	34	6.08449941307517	2	s2_v2 s1_vx sx_v1
27	Male	English	3.08466666666667	3	s2_v2	s2_vx	s1_v1	s1_v1	448	15	34	6.10479323241498	2	s2_v2 s2_vx s1_v1
27	Male	English	3.08466666666667	2	s1_v1	sx_v2	s1_v2	sx_v2	448	16	34	6.10479323241498	2	s1_v1 sx_v2 s1_v2
27	Male	English	3.08466666666667	1	s1_v2	s1_v2	s2_v1	s1_v2	520	17	34	6.25382881157547	2	s1_v2 s1_v2 s2_v1
27	Male	English	3.08466666666667	2	sx_v2	s2_v2	s2_v1	s2_v2	320	18	34	5.76832099579377	2	sx_v2 s2_v2 s2_v1
27	Male	English	3.08466666666667	3	sx_v2	s2_vx	s1_v1	s1_v1	592	19	34	6.38350663488401	2	sx_v2 s2_vx s1_v1
27	Male	English	3.08466666666667	2	s1_v1	s1_vx	s2_v2	s1_vx	320	20	34	5.76832099579377	2	s1_v1 s1_vx s2_v2
27	Male	English	3.08466666666667	1	s1_v2	s2_v1	sx_v1	s1_v2	328	21	34	5.79301360838414	2	s1_v2 s2_v1 sx_v1
27	Male	English	3.08466666666667	3	s2_v1	sx_v1	s2_v2	s2_v2	368	22	34	5.90808293816893	2	s2_v1 sx_v1 s2_v2
27	Male	English	3.08466666666667	3	s2_v2	s1_v1	s1_v1	s1_v1	336	23	34	5.8171111599632	2	s2_v2 s1_v1 s1_v1
27	Male	English	3.08466666666667	2	sx_v2	s2_v1	s1_v2	s2_v1	416	24	34	6.03068526026126	2	sx_v2 s2_v1 s1_v2
27	Male	English	3.08466666666667	1	sx_v1	s2_v1	s2_v2	sx_v1	360	25	34	5.88610403145016	2	sx_v1 s2_v1 s2_v2
27	Male	English	1.15173333333333	1	s1_vx	s2_v2	s1_v2	s1_vx	6608	0	35	8.79603631520081	1	s1_vx s2_v2 s1_v2
27	Male	English	1.15173333333333	3	s2_vx	s2_v1	s1_v1	s1_v1	2501	1	35	7.82444593087762	1	s2_vx s2_v1 s1_v1
27	Male	English	1.15173333333333	2	s1_v2	sx_v2	s1_v1	sx_v2	1129	2	35	7.02908756414966	1	s1_v2 sx_v2 s1_v1
27	Male	English	1.15173333333333	3	s1_vx	s1_v2	s2_v2	s2_v2	1305	3	35	7.17395831975679	1	s1_vx s1_v2 s2_v2
27	Male	English	1.15173333333333	2	s2_vx	s1_v1	s2_v1	s1_v1	3825	4	35	8.24931374626064	1	s2_vx s1_v1 s2_v1
27	Male	English	1.15173333333333	3	s1_v2	s1_vx	s2_v2	s2_v2	1355	5	35	7.2115567333138	1	s1_v2 s1_vx s2_v2
27	Male	English	1.15173333333333	1	s1_v2	sx_v1	s2_v1	s1_v2	2931	6	35	7.98309894071089	1	s1_v2 sx_v1 s2_v1
27	Male	English	1.15173333333333	1	sx_v1	s2_v2	s2_v2	sx_v1	1798	7	35	7.49443021503157	1	sx_v1 s2_v2 s2_v2
27	Male	English	1.15173333333333	3	s2_vx	s2_v2	s1_v2	s1_v2	1349	8	35	7.20711885620776	1	s2_vx s2_v2 s1_v2
27	Male	English	1.15173333333333	3	s2_vx	s1_v2	sx_v1	sx_v1	1481	9	35	7.3004728142678	1	s2_vx s1_v2 sx_v1
27	Male	English	1.15173333333333	1	s2_v2	s1_v1	s1_v1	s2_v2	1196	10	35	7.08673793451058	1	s2_v2 s1_v1 s1_v1
27	Male	English	1.15173333333333	1	sx_v1	s1_v2	s2_vx	sx_v1	1904	11	35	7.55171221535131	1	sx_v1 s1_v2 s2_vx
27	Male	English	1.15173333333333	3	s2_v1	s1_vx	s1_v1	s1_v1	1417	12	35	7.25629723969068	1	s2_v1 s1_vx s1_v1
27	Male	English	1.15173333333333	2	s2_v1	s1_v2	sx_v1	s1_v2	891	13	35	6.79234442747081	1	s2_v1 s1_v2 sx_v1
27	Male	English	1.15173333333333	1	sx_vx	s2_v2	s1_v1	sx_vx	992	14	35	6.89972310728487	2	sx_vx s2_v2 s1_v1
27	Male	English	1.15173333333333	2	s1_v1	sx_v1	s1_v2	sx_v1	1553	15	35	7.34794382314869	2	s1_v1 sx_v1 s1_v2
27	Male	English	1.15173333333333	1	s1_v1	sx_v2	s2_v2	s1_v1	1345	16	35	7.20414929203594	2	s1_v1 sx_v2 s2_v2
27	Male	English	1.15173333333333	2	sx_v2	s2_vx	s1_v1	s2_vx	1138	17	35	7.03702761468628	2	sx_v2 s2_vx s1_v1
27	Male	English	1.15173333333333	2	s2_v1	s2_v2	sx_v1	s2_v2	1325	18	35	7.18916773842032	2	s2_v1 s2_v2 sx_v1
27	Male	English	1.15173333333333	1	s1_v2	s2_v1	sx_v1	s1_v2	889	19	35	6.7900972355139	2	s1_v2 s2_v1 sx_v1
27	Male	English	1.15173333333333	1	sx_v2	s2_v1	s2_v1	sx_v2	979	20	35	6.88653164253051	2	sx_v2 s2_v1 s2_v1
27	Male	English	1.15173333333333	2	s1_v2	sx_v1	s2_vx	sx_v1	1634	21	35	7.39878627541995	2	s1_v2 sx_v1 s2_vx
27	Male	English	1.15173333333333	3	s1_v2	s2_vx	sx_v1	sx_v1	1115	22	35	7.01660968389422	2	s1_v2 s2_vx sx_v1
27	Male	English	1.15173333333333	3	s1_v1	s2_vx	sx_v2	sx_v2	1172	23	35	7.06646697013696	2	s1_v1 s2_vx sx_v2
27	Male	English	1.15173333333333	2	s2_v2	sx_v1	s2_v2	sx_v1	848	24	35	6.7428806357919	2	s2_v2 sx_v1 s2_v2
27	Male	English	1.15173333333333	1	s2_v1	s1_v1	s1_vx	s2_v1	1023	25	35	6.93049476595163	2	s2_v1 s1_v1 s1_vx
25	male	English	10.5073666666667	1	s2_v2	s1_vx	s1_v2	s2_v2	5154	0	36	8.54752839121231	1	s2_v2 s1_vx s1_v2
25	male	English	10.5073666666667	1	s1_v1	s2_vx	s2_v2	s1_v1	16695	1	36	9.72286455237776	1	s1_v1 s2_vx s2_v2
25	male	English	10.5073666666667	1	s1_vx	s2_v1	sx_v2	s1_vx	4307	2	36	8.36799688505411	1	s1_vx s2_v1 sx_v2
25	male	English	10.5073666666667	1	s1_v1	s2_v2	s2_v2	s1_v1	1236	3	36	7.11963563801764	1	s1_v1 s2_v2 s2_v2
25	male	English	10.5073666666667	2	s2_v2	s1_v1	sx_vx	s1_v1	2269	4	36	7.72709448477984	1	s2_v2 s1_v1 sx_vx
25	male	English	10.5073666666667	2	s1_vx	s2_v1	s1_v2	s2_v1	990	5	36	6.89770494312864	1	s1_vx s2_v1 s1_v2
25	male	English	10.5073666666667	1	s2_v2	s1_vx	s1_v1	s2_v2	1097	6	36	7.00033446027523	1	s2_v2 s1_vx s1_v1
25	male	English	10.5073666666667	2	s1_v2	s2_v1	s1_vx	s2_v1	957	7	36	6.86380339145295	1	s1_v2 s2_v1 s1_vx
25	male	English	10.5073666666667	2	sx_v2	s2_v1	s1_v2	s2_v1	1433	8	36	7.26752542782817	1	sx_v2 s2_v1 s1_v2
25	male	English	10.5073666666667	1	s2_v1	s1_v2	s1_vx	s2_v1	1101	9	36	7.00397413672268	1	s2_v1 s1_v2 s1_vx
25	male	English	10.5073666666667	2	s2_vx	s1_v1	s2_v1	s1_v1	5028	10	36	8.52277756971014	1	s2_vx s1_v1 s2_v1
25	male	English	10.5073666666667	3	s1_v1	sx_v1	s2_v2	s2_v2	5371	11	36	8.58876938990546	1	s1_v1 sx_v1 s2_v2
25	male	English	10.5073666666667	3	sx_v1	s1_v1	s1_v2	s1_v2	1775	12	36	7.48155570190952	1	sx_v1 s1_v1 s1_v2
25	male	English	10.5073666666667	2	s1_v1	s2_v2	s1_vx	s2_v2	1868	13	36	7.53262361878879	1	s1_v1 s2_v2 s1_vx
25	male	English	10.5073666666667	2	sx_v2	s1_v1	s1_v2	s1_v1	2254	14	36	7.72046169459972	2	sx_v2 s1_v1 s1_v2
25	male	English	10.5073666666667	3	sx_v2	s1_v2	s2_v1	s2_v1	1222	15	36	7.10824413973154	2	sx_v2 s1_v2 s2_v1
25	male	English	10.5073666666667	2	s2_vx	s1_v1	s2_v2	s1_v1	1953	16	36	7.57712193087668	2	s2_vx s1_v1 s2_v2
25	male	English	10.5073666666667	3	sx_v2	s2_v2	s1_v1	s1_v1	1600	17	36	7.37775890822787	2	sx_v2 s2_v2 s1_v1
25	male	English	10.5073666666667	3	s1_v2	s1_v2	s2_v1	s2_v1	1007	18	36	6.91473089271856	2	s1_v2 s1_v2 s2_v1
25	male	English	10.5073666666667	3	s2_v2	s2_v2	s1_v1	s1_v1	752	19	36	6.62273632394984	2	s2_v2 s2_v2 s1_v1
25	male	English	10.5073666666667	1	sx_v2	s2_vx	s1_v1	sx_v2	4523	20	36	8.41693076947784	2	sx_v2 s2_vx s1_v1
25	male	English	10.5073666666667	3	s2_v1	sx_v1	s1_v2	s1_v2	2633	21	36	7.87587915949631	2	s2_v1 sx_v1 s1_v2
25	male	English	10.5073666666667	3	s2_v2	sx_v2	s1_v1	s1_v1	996	22	36	6.9037472575846	2	s2_v2 sx_v2 s1_v1
25	male	English	10.5073666666667	1	s2_v2	sx_v1	s2_v1	s2_v2	1265	23	36	7.14282740116162	2	s2_v2 sx_v1 s2_v1
