Answer.age	Answer.gender	Answer.language	Answer.time_in_minutes	competitor	competitor_r	distractor_r	distractor1	distractor2	img1	img2	img3	imptype	msg1	msg2	msg3	msg4	pos_competitor	pos_distractor1	pos_distractor2	pos_target	pos1	pos2	pos3	pos4	response	rpos1	rpos2	rpos3	rt	target	trial	trialtype	trigger_r	workerid	logrt	half	third	redimptype	redresponse
25	female	English	4.07365	s2	{us: usx, uv: uv2}	{us: us1, uv: uv1}	v1	s1	s2_v2	target_sx_v2	s1_v1	simple_c	v2	s2	v1	s1	2	3	4	1	target	competitor	distractor1	distractor2	distractor1	target	competitor	distractor	11128	v2	0	filler	{us: us2, uv: uv2}	1	9.31721973360328	1	1	unambiguous	distractor
25	female	English	4.07365	s1	{us: us2, uv: uv1}	{us: us2, uv: uv1}	v1	s2	s2_v1	target_sx_v2	s2_v1	unambiguous	s2	s1	v1	v2	2	3	1	4	distractor2	competitor	distractor1	target	target	competitor	target	distractor	4762	v2	1	filler	{us: usx, uv: uv2}	1	8.46842302704681	1	1	unambiguous	target
25	female	English	4.07365	s1	{us: us1, uv: uvx}	{us: us2, uv: uv2}	s2	v2	s2_v2	s1_vx	target_s1_v1	simple	v2	s2	v1	s1	4	2	1	3	distractor2	distractor1	target	competitor	target	distractor	competitor	target	1666	v1	2	target	{us: us1, uv: uv1}	1	7.41818082272679	1	1	simple	target
25	female	English	4.07365	s2	{us: usx, uv: uv2}	{us: us1, uv: uvx}	s1	v2	s1_vx	target_s2_v1	sx_v2	ambiguous	v1	s2	v2	s1	2	4	3	1	target	competitor	distractor2	distractor1	target	distractor	target	competitor	1263	v1	3	filler	{us: us2, uv: uv1}	1	7.14124512235049	1	1	ambiguous	target
25	female	English	4.07365	v2	{us: us1, uv: uv1}	{us: usx, uv: uv1}	s1	v1	s1_v1	target_s2_vx	sx_v1	unambiguous	v1	s2	s1	v2	4	3	1	2	distractor2	target	distractor1	competitor	target	competitor	target	distractor	1764	s2	4	filler	{us: us2, uv: uvx}	1	7.47533923656674	1	1	unambiguous	target
25	female	English	4.07365	v1	{us: us1, uv: uv1}	{us: us2, uv: uvx}	s1	v2	s1_v1	s2_v1	target_s2_vx	complex_d	s2	v2	v1	s1	3	4	2	1	target	distractor2	competitor	distractor1	target	competitor	target	distractor	1085	s2	5	filler	{us: us2, uv: uv1}	1	6.98933526597456	1	1	unambiguous	target
25	female	English	4.07365	s2	{us: us2, uv: uv1}	{us: usx, uv: uv2}	v1	s1	s2_v1	target_sx_v2	s2_v2	complex_d	v2	v1	s1	s2	4	2	3	1	target	distractor1	distractor2	competitor	target	competitor	distractor	target	1842	v2	6	filler	{us: us2, uv: uv2}	1	7.51860721681525	1	1	unambiguous	target
25	female	English	4.07365	v2	{us: us2, uv: uv2}	{us: us1, uv: uvx}	s2	v1	s1_v2	target_s1_vx	s2_v2	complex_d	s2	v2	v1	s1	2	1	3	4	distractor1	competitor	distractor2	target	target	target	distractor	competitor	9983	s1	7	filler	{us: us1, uv: uv2}	1	9.20863892533642	1	1	unambiguous	target
25	female	English	4.07365	v2	{us: us2, uv: uv1}	{us: usx, uv: uv2}	v1	s1	s2_v1	sx_v2	target_s2_v2	complex	s1	v2	s2	v1	2	4	1	3	distractor2	competitor	target	distractor1	target	competitor	distractor	target	4091	s2	8	target	{us: us2, uv: uv2}	1	8.3165447179294	1	1	complex	target
25	female	English	4.07365	s1	{us: us1, uv: uv1}	{us: usx, uv: uv2}	v1	s2	target_sx_v2	s1_v2	s1_v1	complex_d	v2	s2	s1	v1	3	4	2	1	target	distractor2	competitor	distractor1	target	distractor	target	competitor	2674	v2	9	filler	{us: us1, uv: uv2}	1	7.89133075766189	1	1	unambiguous	target
25	female	English	4.07365	s2	{us: us1, uv: uvx}	{us: us2, uv: uv1}	v2	s1	s1_vx	s1_v2	target_s2_v1	simple_d	s1	v1	s2	v2	3	4	1	2	distractor2	target	competitor	distractor1	target	competitor	target	distractor	1140	v1	10	filler	{us: us1, uv: uv2}	1	7.03878354138854	1	1	ambiguous	target
25	female	English	4.07365	v1	{us: us2, uv: uv1}	{us: us1, uv: uv1}	s1	s2	s2_v1	s1_v1	target_sx_v2	unambiguous	s1	v1	s2	v2	2	1	3	4	distractor1	competitor	distractor2	target	target	competitor	distractor	target	1304	v2	11	filler	{us: usx, uv: uv2}	1	7.1731917424866	1	1	unambiguous	target
25	female	English	4.07365	s1	{us: usx, uv: uv1}	{us: us2, uv: uv1}	s2	v1	s2_v1	target_s1_v2	sx_v1	ambiguous	v1	s1	v2	s2	2	4	1	3	distractor2	competitor	target	distractor1	target	distractor	target	competitor	1040	v2	12	filler	{us: us1, uv: uv2}	1	6.94697599213542	1	1	ambiguous	target
25	female	English	4.07365	s1	{us: us2, uv: uv2}	{us: us1, uv: uvx}	s2	v1	target_s1_v2	s1_vx	s2_v2	complex	s2	v2	v1	s1	4	1	3	2	distractor1	target	distractor2	competitor	competitor	target	distractor	competitor	1989	v2	13	target	{us: us1, uv: uv2}	1	7.59538727885397	1	1	complex	competitor
25	female	English	4.07365	s2	{us: us2, uv: uvx}	{us: us1, uv: uv1}	v1	s1	target_s2_v2	s1_v1	s2_vx	simple	s1	s2	v1	v2	2	3	1	4	distractor2	competitor	distractor1	target	target	target	distractor	competitor	1571	v2	14	target	{us: us2, uv: uv2}	1	7.35946763825562	1	1	simple	target
25	female	English	4.07365	s1	{us: us1, uv: uv1}	{us: usx, uv: uv2}	v1	s2	s1_v2	target_sx_v2	s1_v1	complex_d	v2	s1	s2	v1	2	4	3	1	target	competitor	distractor2	distractor1	target	target	distractor	competitor	1818	v2	15	filler	{us: us1, uv: uv2}	1	7.50549227473742	1	1	unambiguous	target
25	female	English	4.07365	s2	{us: us2, uv: uv1}	{us: usx, uv: uv2}	v1	s1	s2_v1	s2_v2	target_sx_v2	complex_d	v2	s1	s2	v1	3	4	2	1	target	distractor2	competitor	distractor1	target	competitor	target	distractor	1566	v2	16	filler	{us: us2, uv: uv2}	1	7.35627987655075	1	1	unambiguous	target
25	female	English	4.07365	s1	{us: us2, uv: uv2}	{us: us2, uv: uv2}	s2	v2	target_s1_v1	s2_v2	s2_v2	ambiguous	v2	s2	v1	s1	4	2	1	3	distractor2	distractor1	target	competitor	target	target	distractor	competitor	1965	v1	17	filler	{us: us1, uv: uv1}	1	7.58324752430336	1	1	ambiguous	target
25	female	English	4.07365	s2	{us: usx, uv: uv1}	{us: us1, uv: uv2}	s1	v2	target_sx_v1	s1_v2	s2_v1	simple_c	v2	v1	s2	s1	3	4	1	2	distractor2	target	competitor	distractor1	target	competitor	distractor	target	1517	v1	18	filler	{us: us2, uv: uv1}	1	7.32448997934853	1	1	unambiguous	target
25	female	English	4.07365	v1	{us: us2, uv: uv1}	{us: us1, uv: uvx}	s2	v2	s1_v1	target_s1_vx	s2_v1	complex_d	s1	v2	v1	s2	3	4	2	1	target	distractor2	competitor	distractor1	target	target	distractor	competitor	3324	s1	19	filler	{us: us1, uv: uv1}	1	8.10892415597534	1	1	unambiguous	target
25	female	English	4.07365	v1	{us: us1, uv: uvx}	{us: us2, uv: uv2}	s2	v2	s2_v2	target_s1_vx	s1_v1	simple_c	v2	s2	v1	s1	3	2	1	4	distractor2	distractor1	competitor	target	target	distractor	competitor	target	1846	s1	20	filler	{us: us1, uv: uv1}	1	7.5207764150628	1	1	unambiguous	target
25	female	English	4.07365	s2	{us: us1, uv: uv1}	{us: us2, uv: uvx}	s1	v2	s2_vx	target_s2_v1	s1_v1	complex	v2	s1	s2	v1	3	2	1	4	distractor2	distractor1	competitor	target	target	distractor	target	competitor	2320	v1	21	target	{us: us2, uv: uv1}	1	7.74932246466036	1	1	complex	target
25	female	English	4.07365	s2	{us: us1, uv: uvx}	{us: us1, uv: uv1}	s1	v1	s1_v1	target_s2_v2	s1_vx	ambiguous	s2	s1	v1	v2	1	2	3	4	competitor	distractor1	distractor2	target	target	distractor	target	competitor	2513	v2	22	filler	{us: us2, uv: uv2}	1	7.82923253754359	1	1	ambiguous	target
25	female	English	4.07365	v2	{us: us2, uv: uv1}	{us: usx, uv: uv2}	v1	s1	s2_v1	sx_v2	target_s2_v2	complex	s2	v2	v1	s1	2	3	4	1	target	competitor	distractor1	distractor2	competitor	competitor	distractor	target	1040	s2	23	target	{us: us2, uv: uv2}	1	6.94697599213542	1	2	complex	competitor
25	female	English	4.07365	s1	{us: us2, uv: uvx}	{us: us1, uv: uv2}	v1	s2	target_s1_v2	s2_vx	s2_v1	simple_d	s2	v1	s1	v2	3	2	1	4	distractor2	distractor1	competitor	target	target	distractor	competitor	target	1078	v2	24	filler	{us: us2, uv: uv1}	1	6.98286275146894	1	2	ambiguous	target
25	female	English	4.07365	v2	{us: usx, uv: uv1}	{us: us1, uv: uv2}	s2	v1	s2_v1	target_s1_v2	sx_v1	simple_d	v2	v1	s1	s2	1	4	2	3	competitor	distractor2	target	distractor1	competitor	target	distractor	competitor	1303	s1	25	filler	{us: us2, uv: uv1}	1	7.17242457712485	1	2	ambiguous	competitor
25	female	English	4.07365	s2	{us: usx, uv: uv1}	{us: us1, uv: uv2}	v2	s1	s1_v2	target_sx_v1	s2_v1	simple_c	v1	s2	v2	s1	2	3	4	1	target	competitor	distractor1	distractor2	target	distractor	competitor	target	1172	v1	26	filler	{us: us2, uv: uv1}	1	7.06646697013696	1	2	unambiguous	target
25	female	English	4.07365	v2	{us: us1, uv: uv2}	{us: us2, uv: uvx}	s1	v1	s1_v2	s2_v2	target_s2_vx	complex_d	s1	v1	s2	v2	4	1	2	3	distractor1	distractor2	target	competitor	target	competitor	target	distractor	1949	s2	27	filler	{us: us2, uv: uv2}	1	7.57507169950756	1	2	unambiguous	target
25	female	English	4.07365	v2	{us: usx, uv: uv2}	{us: us1, uv: uv1}	v1	s1	s1_v1	target_s2_v2	sx_v2	simple	v1	s2	v2	s1	3	1	4	2	distractor1	target	competitor	distractor2	competitor	distractor	target	competitor	41310	s2	28	target	{us: us2, uv: uv2}	1	10.6288598803908	1	2	simple	competitor
25	female	English	4.07365	s2	{us: usx, uv: uv2}	{us: us2, uv: uv1}	s1	v2	target_s2_v1	s1_v2	sx_v2	simple_d	s1	v1	s2	v2	3	1	4	2	distractor1	target	competitor	distractor2	target	distractor	target	competitor	1170	v1	29	filler	{us: us1, uv: uv2}	1	7.0647590277918	1	2	ambiguous	target
25	female	English	4.07365	s2	{us: us2, uv: uv1}	{us: usx, uv: uv2}	v1	s1	s2_v1	target_sx_v2	s2_v2	complex_d	s1	v2	s2	v1	3	4	1	2	distractor2	target	competitor	distractor1	target	competitor	distractor	target	1116	v2	30	filler	{us: us2, uv: uv2}	1	7.01750614294126	1	2	unambiguous	target
25	female	English	4.07365	s2	{us: us1, uv: uv2}	{us: us2, uv: uvx}	s1	v1	s1_v2	target_s2_v2	s2_vx	complex	s1	v1	s2	v2	3	1	2	4	distractor1	distractor2	competitor	target	target	competitor	target	distractor	1102	v2	31	target	{us: us2, uv: uv2}	1	7.00488198971286	1	2	complex	target
25	female	English	4.07365	v1	{us: usx, uv: uv1}	{us: us1, uv: uv2}	s1	v2	sx_v1	s1_v2	target_s2_v1	simple	v2	v1	s2	s1	2	4	1	3	distractor2	competitor	target	distractor1	distractor2	competitor	distractor	target	1080	s2	32	target	{us: us2, uv: uv1}	1	6.98471632011827	1	2	simple	distractor
25	female	English	4.07365	v1	{us: usx, uv: uv2}	{us: us2, uv: uv2}	s2	v2	sx_v2	s2_v2	target_s1_v1	ambiguous	s1	s2	v2	v1	4	2	3	1	target	distractor1	distractor2	competitor	competitor	competitor	distractor	target	1193	s1	33	filler	{us: us1, uv: uv1}	1	7.08422642209792	1	2	ambiguous	competitor
25	female	English	4.07365	v2	{us: usx, uv: uv1}	{us: us1, uv: uv2}	s2	v1	target_s1_v2	sx_v1	s2_v1	simple_d	s2	v2	s1	v1	2	1	4	3	distractor1	competitor	target	distractor2	competitor	distractor	competitor	target	811	s1	34	filler	{us: us2, uv: uv1}	1	6.69826805411541	2	2	ambiguous	competitor
25	female	English	4.07365	v2	{us: us2, uv: uv2}	{us: us2, uv: uv2}	v1	s2	s2_v2	target_s1_vx	s2_v2	unambiguous	s1	s2	v1	v2	4	3	2	1	target	distractor2	distractor1	competitor	target	competitor	target	distractor	2904	s1	35	filler	{us: us1, uv: uvx}	1	7.97384437594469	2	2	unambiguous	target
25	female	English	4.07365	s2	{us: us1, uv: uv1}	{us: us2, uv: uvx}	s1	v2	s1_v1	target_s2_v1	s2_vx	complex	s2	v2	v1	s1	1	4	2	3	competitor	distractor2	target	distractor1	target	competitor	target	distractor	15465	v1	36	target	{us: us2, uv: uv1}	1	9.64633468511917	2	2	complex	target
25	female	English	4.07365	v2	{us: us1, uv: uv1}	{us: usx, uv: uv2}	v1	s2	sx_v2	target_s1_v2	s1_v1	complex	v2	s2	s1	v1	1	4	2	3	competitor	distractor2	target	distractor1	competitor	distractor	target	competitor	41130	s1	37	target	{us: us1, uv: uv2}	1	10.6244930612245	2	2	complex	competitor
25	female	English	4.07365	v2	{us: us1, uv: uv1}	{us: usx, uv: uv2}	v1	s2	target_s1_v2	sx_v2	s1_v1	complex	v2	s1	s2	v1	1	4	3	2	competitor	target	distractor2	distractor1	target	target	distractor	competitor	1571	s1	38	target	{us: us1, uv: uv2}	1	7.35946763825562	2	2	complex	target
25	female	English	4.07365	v2	{us: us2, uv: uv2}	{us: us2, uv: uv1}	v1	s2	s2_v1	target_s1_vx	s2_v2	unambiguous	v1	s2	v2	s1	3	1	2	4	distractor1	distractor2	competitor	target	target	distractor	target	competitor	1210	s1	39	filler	{us: us1, uv: uvx}	1	7.09837563859079	2	2	unambiguous	target
25	female	English	4.07365	v1	{us: usx, uv: uv1}	{us: us1, uv: uv2}	s1	v2	s1_v2	sx_v1	target_s2_v1	simple	s2	v2	s1	v1	4	3	2	1	target	distractor2	distractor1	competitor	competitor	distractor	competitor	target	1342	s2	40	target	{us: us2, uv: uv1}	1	7.20191631753163	2	2	simple	competitor
25	female	English	4.07365	s1	{us: us1, uv: uv1}	{us: usx, uv: uv2}	v1	s2	target_sx_v2	s1_v2	s1_v1	complex_d	v1	s1	v2	s2	2	1	4	3	distractor1	competitor	target	distractor2	target	distractor	target	competitor	894	v2	41	filler	{us: us1, uv: uv2}	1	6.79570577517351	2	2	unambiguous	target
25	female	English	4.07365	s1	{us: usx, uv: uv1}	{us: us2, uv: uv2}	s2	v2	s2_v2	s1_v1	target_sx_v1	simple_c	s1	v1	v2	s2	1	4	3	2	competitor	target	distractor2	distractor1	target	distractor	target	competitor	1056	v1	42	filler	{us: us1, uv: uv1}	1	6.96224346426621	2	2	unambiguous	target
25	female	English	4.07365	v2	{us: usx, uv: uv2}	{us: us1, uv: uv1}	v1	s1	target_s2_v2	sx_v2	s1_v1	simple	v2	s2	v1	s1	1	3	4	2	competitor	target	distractor1	distractor2	competitor	target	competitor	distractor	1010	s2	43	target	{us: us2, uv: uv2}	1	6.9177056098353	2	2	simple	competitor
25	female	English	4.07365	v1	{us: us1, uv: uv1}	{us: us2, uv: uvx}	s1	v2	target_s2_vx	s2_v1	s1_v1	complex_d	v2	s1	s2	v1	4	2	1	3	distractor2	distractor1	target	competitor	target	distractor	target	competitor	2566	s2	44	filler	{us: us2, uv: uv1}	1	7.85010354517558	2	2	unambiguous	target
25	female	English	4.07365	s2	{us: us2, uv: uv1}	{us: usx, uv: uv2}	v1	s1	s2_v1	target_sx_v2	s2_v2	complex_d	s2	v2	v1	s1	1	3	4	2	competitor	target	distractor1	distractor2	target	competitor	distractor	target	1077	v2	45	filler	{us: us2, uv: uv2}	1	6.98193467715639	2	3	unambiguous	target
25	female	English	4.07365	v2	{us: us1, uv: uv1}	{us: usx, uv: uv2}	v1	s2	sx_v2	target_s1_v2	s1_v1	complex	v1	s1	v2	s2	3	1	4	2	distractor1	target	competitor	distractor2	competitor	distractor	target	competitor	1342	s1	46	target	{us: us1, uv: uv2}	1	7.20191631753163	2	3	complex	competitor
25	female	English	4.07365	s1	{us: usx, uv: uv2}	{us: us1, uv: uv1}	s2	v2	target_s1_v1	s2_v2	sx_v2	simple_d	v1	s2	v2	s1	4	2	3	1	target	distractor1	distractor2	competitor	target	distractor	target	competitor	1664	v1	47	filler	{us: us2, uv: uv2}	1	7.41697962138115	2	3	ambiguous	target
25	female	English	4.07365	s2	{us: us2, uv: uvx}	{us: us1, uv: uv2}	v2	s1	s1_v2	s2_vx	target_s2_v1	simple	s2	v1	s1	v2	1	4	3	2	competitor	target	distractor2	distractor1	target	distractor	competitor	target	1272	v1	48	target	{us: us2, uv: uv1}	1	7.14834574390007	2	3	simple	target
25	female	English	4.07365	v2	{us: usx, uv: uv2}	{us: us2, uv: uv1}	v1	s2	s2_v1	target_s1_v2	sx_v2	simple	s1	v1	s2	v2	4	2	3	1	target	distractor1	distractor2	competitor	competitor	distractor	target	competitor	1332	s1	49	target	{us: us1, uv: uv2}	1	7.19443685110033	2	3	simple	competitor
25	female	English	4.07365	s2	{us: us1, uv: uv2}	{us: us1, uv: uv2}	s1	v2	s1_v2	target_s2_v1	s1_v2	ambiguous	v1	v2	s2	s1	3	4	2	1	target	distractor2	competitor	distractor1	target	competitor	target	distractor	1998	v1	50	filler	{us: us2, uv: uv1}	1	7.5999019592085	2	3	ambiguous	target
25	female	English	4.07365	v2	{us: us1, uv: uv2}	{us: us1, uv: uv1}	s1	v1	target_s2_vx	s1_v1	s1_v2	unambiguous	v1	v2	s2	s1	2	4	1	3	distractor2	competitor	target	distractor1	target	target	distractor	competitor	1510	s2	51	filler	{us: us2, uv: uvx}	1	7.31986492980897	2	3	unambiguous	target
25	female	English	4.07365	v1	{us: us2, uv: uv1}	{us: us2, uv: uvx}	s1	s2	s2_v1	target_sx_v2	s2_vx	unambiguous	s2	s1	v1	v2	3	2	1	4	distractor2	distractor1	competitor	target	target	competitor	target	distractor	1032	v2	52	filler	{us: usx, uv: uv2}	1	6.93925394604151	2	3	unambiguous	target
25	female	English	4.07365	v2	{us: us2, uv: uvx}	{us: us1, uv: uv1}	v1	s1	s2_v2	s1_v1	target_s2_vx	simple_c	s1	s2	v1	v2	4	3	1	2	distractor2	target	distractor1	competitor	distractor2	target	distractor	competitor	2606	s2	53	filler	{us: us2, uv: uv2}	1	7.86557175768479	2	3	unambiguous	distractor
25	female	English	4.07365	s1	{us: us2, uv: uv1}	{us: us1, uv: uvx}	s2	v2	target_s1_v1	s1_vx	s2_v1	complex	s1	v2	v1	s2	1	4	2	3	competitor	distractor2	target	distractor1	target	target	distractor	competitor	1464	v1	54	target	{us: us1, uv: uv1}	1	7.28892769452126	2	3	complex	target
25	female	English	4.07365	v1	{us: us1, uv: uv2}	{us: us1, uv: uv2}	s1	v2	s1_v2	s1_v2	target_s2_v1	ambiguous	s2	v1	v2	s1	2	4	3	1	target	competitor	distractor2	distractor1	competitor	distractor	competitor	target	1256	s2	55	filler	{us: us2, uv: uv1}	1	7.13568734702814	2	3	ambiguous	competitor
25	female	English	4.07365	v2	{us: us2, uv: uv1}	{us: usx, uv: uv2}	v1	s1	s2_v1	target_s2_v2	sx_v2	complex	v2	s1	s2	v1	1	4	2	3	competitor	distractor2	target	distractor1	target	competitor	target	distractor	2519	s2	56	target	{us: us2, uv: uv2}	1	7.83161727635261	2	3	complex	target
25	female	English	4.07365	v2	{us: us1, uv: uv2}	{us: us2, uv: uv2}	s1	s2	s2_v2	target_sx_v1	s1_v2	unambiguous	s1	v1	v2	s2	3	1	4	2	distractor1	target	competitor	distractor2	target	distractor	target	competitor	1414	v1	57	filler	{us: usx, uv: uv1}	1	7.25417784645652	2	3	unambiguous	target
25	female	English	4.07365	v1	{us: usx, uv: uv2}	{us: usx, uv: uv2}	s1	v2	sx_v2	target_s2_vx	sx_v2	unambiguous	v2	s1	s2	v1	4	2	1	3	distractor2	distractor1	target	competitor	target	distractor	target	competitor	1877	s2	58	filler	{us: us2, uv: uvx}	1	7.53743003658651	2	3	unambiguous	target
25	female	English	4.07365	v1	{us: usx, uv: uv1}	{us: us1, uv: uv2}	s1	v2	target_s2_v1	s1_v2	sx_v1	simple	v2	v1	s1	s2	2	3	1	4	distractor2	competitor	distractor1	target	competitor	target	distractor	competitor	1311	s2	59	target	{us: us2, uv: uv1}	1	7.1785454837637	2	3	simple	competitor
25	female	English	4.07365	s1	{us: usx, uv: uv2}	{us: us2, uv: uv2}	s2	v2	target_s1_v1	sx_v2	s2_v2	ambiguous	v1	s1	v2	s2	2	4	3	1	target	competitor	distractor2	distractor1	target	target	competitor	distractor	1456	v1	60	filler	{us: us1, uv: uv1}	1	7.28344822875663	2	3	ambiguous	target
25	female	English	4.07365	v2	{us: us2, uv: uv1}	{us: usx, uv: uv2}	v1	s1	s2_v1	sx_v2	target_s2_v2	complex	v2	v1	s1	s2	1	2	3	4	competitor	distractor1	distractor2	target	competitor	competitor	distractor	target	1056	s2	61	target	{us: us2, uv: uv2}	1	6.96224346426621	2	3	complex	competitor
25	female	English	4.07365	s1	{us: us1, uv: uvx}	{us: us2, uv: uv1}	v1	s2	s1_vx	target_s1_v2	s2_v1	simple	s1	v1	s2	v2	1	2	3	4	competitor	distractor1	distractor2	target	target	competitor	target	distractor	1472	v2	62	target	{us: us1, uv: uv2}	1	7.29437729928882	2	3	simple	target
25	female	English	4.07365	s2	{us: us1, uv: uvx}	{us: us1, uv: uvx}	s1	v2	s1_vx	target_s2_v1	s1_vx	ambiguous	v2	s1	v1	s2	4	2	1	3	distractor2	distractor1	target	competitor	target	competitor	target	distractor	1123	v1	63	filler	{us: us2, uv: uv1}	1	7.02375895473844	2	3	ambiguous	target
25	female	English	4.07365	v1	{us: usx, uv: uv1}	{us: us2, uv: uv2}	s2	v2	s2_v2	target_s1_v1	sx_v1	simple	s1	v1	v2	s2	2	4	3	1	target	competitor	distractor2	distractor1	competitor	distractor	target	competitor	1442	s1	64	target	{us: us1, uv: uv1}	1	7.27378631784489	2	3	simple	competitor
25	female	English	4.07365	v1	{us: usx, uv: uv1}	{us: us1, uv: uv2}	v2	s1	s1_v2	sx_v1	target_s2_v1	simple	v1	s2	v2	s1	1	3	4	2	competitor	target	distractor1	distractor2	competitor	distractor	competitor	target	1186	s2	65	target	{us: us2, uv: uv1}	1	7.07834157955767	2	3	simple	competitor
35	male	English	4.32141666666667	v1	{us: usx, uv: uv2}	{us: us2, uv: uv1}	s1	v2	s1_v2	target_s2_v1	sx_v2	simple_d	v2	s2	s1	v1	4	3	1	2	distractor2	target	distractor1	competitor	competitor	target	distractor	competitor	15056	s2	0	filler	{us: us1, uv: uv2}	2	9.61953186182516	1	1	ambiguous	competitor
35	male	English	4.32141666666667	s1	{us: usx, uv: uv2}	{us: us2, uv: uv1}	s2	v1	target_sx_v2	s2_v1	s1_v2	simple_c	s2	v1	s1	v2	3	1	2	4	distractor1	distractor2	competitor	target	target	competitor	distractor	target	9274	v2	1	filler	{us: us1, uv: uv2}	2	9.13497006495141	1	1	unambiguous	target
35	male	English	4.32141666666667	s1	{us: us1, uv: uv1}	{us: usx, uv: uv2}	v1	s2	s1_v2	target_sx_v2	s1_v1	complex_d	v2	s2	v1	s1	4	3	2	1	target	distractor2	distractor1	competitor	target	target	distractor	competitor	3690	v2	2	filler	{us: us1, uv: uv2}	2	8.21338173703457	1	1	unambiguous	target
35	male	English	4.32141666666667	s2	{us: usx, uv: uv2}	{us: us2, uv: uv2}	v2	v1	sx_v2	s2_v2	target_s1_vx	unambiguous	v1	s2	v2	s1	2	3	1	4	distractor2	competitor	distractor1	target	target	competitor	distractor	target	2254	s1	3	filler	{us: us1, uv: uvx}	2	7.72046169459972	1	1	unambiguous	target
35	male	English	4.32141666666667	v2	{us: us2, uv: uv2}	{us: usx, uv: uv1}	v1	s2	sx_v1	s2_v2	target_s1_vx	unambiguous	s1	v2	s2	v1	2	4	3	1	target	competitor	distractor2	distractor1	target	distractor	competitor	target	2448	s1	4	filler	{us: us1, uv: uvx}	2	7.80302664363222	1	1	unambiguous	target
35	male	English	4.32141666666667	v1	{us: us2, uv: uv2}	{us: us2, uv: uv2}	v2	s2	target_s1_vx	s2_v2	s2_v2	unambiguous	v2	v1	s2	s1	2	1	3	4	distractor1	competitor	distractor2	target	target	target	competitor	distractor	1718	s1	5	filler	{us: us1, uv: uvx}	2	7.4489161025442	1	1	unambiguous	target
35	male	English	4.32141666666667	v1	{us: us2, uv: uvx}	{us: us1, uv: uv2}	v2	s1	s1_v2	s2_v1	target_s2_vx	simple_c	s2	s1	v2	v1	4	3	2	1	target	distractor2	distractor1	competitor	target	distractor	target	competitor	5284	s2	6	filler	{us: us2, uv: uv1}	2	8.57243866564222	1	1	unambiguous	target
35	male	English	4.32141666666667	v1	{us: usx, uv: uv1}	{us: us1, uv: uv2}	v2	s1	s1_v2	target_s2_v1	sx_v1	simple	v1	s2	v2	s1	1	3	4	2	competitor	target	distractor1	distractor2	target	distractor	target	competitor	3064	s2	7	target	{us: us2, uv: uv1}	2	8.02747653086048	1	1	simple	target
35	male	English	4.32141666666667	s2	{us: usx, uv: uv2}	{us: us1, uv: uv2}	s1	v2	sx_v2	s1_v2	target_s2_v1	ambiguous	v2	s2	s1	v1	2	3	1	4	distractor2	competitor	distractor1	target	competitor	competitor	distractor	target	1561	v1	8	filler	{us: us2, uv: uv1}	2	7.35308192051543	1	1	ambiguous	competitor
35	male	English	4.32141666666667	s1	{us: us1, uv: uv2}	{us: usx, uv: uv1}	v2	s2	target_sx_v1	s1_v2	s1_v1	complex_d	s2	v2	s1	v1	3	2	1	4	distractor2	distractor1	competitor	target	target	distractor	competitor	target	3041	v1	9	filler	{us: us1, uv: uv1}	2	8.01994168767737	1	1	unambiguous	target
35	male	English	4.32141666666667	v1	{us: us1, uv: uv1}	{us: us2, uv: uvx}	s1	v2	s2_v1	s1_v1	target_s2_vx	complex_d	v1	s2	s1	v2	1	3	4	2	competitor	target	distractor1	distractor2	target	target	competitor	distractor	1851	s2	10	filler	{us: us2, uv: uv1}	2	7.5234813125735	1	1	unambiguous	target
35	male	English	4.32141666666667	v2	{us: usx, uv: uv2}	{us: us2, uv: uv1}	s2	v1	target_s1_v2	s2_v1	sx_v2	simple	v2	s2	s1	v1	1	2	4	3	competitor	distractor1	target	distractor2	target	target	distractor	competitor	2247	s1	11	target	{us: us1, uv: uv2}	2	7.71735127218533	1	1	simple	target
35	male	English	4.32141666666667	v2	{us: usx, uv: uv1}	{us: us2, uv: uv2}	s1	v1	target_s2_v2	sx_v1	s1_v1	simple_d	s1	s2	v1	v2	4	1	3	2	distractor1	target	distractor2	competitor	target	distractor	competitor	target	1946	s2	12	filler	{us: us1, uv: uv1}	2	7.57353126274595	1	1	ambiguous	target
35	male	English	4.32141666666667	v2	{us: us2, uv: uv1}	{us: us2, uv: uv1}	v1	s2	target_s1_vx	s2_v1	s2_v1	unambiguous	v2	s2	v1	s1	1	3	2	4	competitor	distractor2	distractor1	target	target	target	distractor	competitor	1404	s1	13	filler	{us: us1, uv: uvx}	2	7.24708058458576	1	1	unambiguous	target
35	male	English	4.32141666666667	v1	{us: usx, uv: uv1}	{us: us1, uv: uv2}	s1	v2	target_s2_v1	s1_v2	sx_v1	simple	s1	v2	s2	v1	4	1	2	3	distractor1	distractor2	target	competitor	target	target	distractor	competitor	1522	s2	14	target	{us: us2, uv: uv1}	2	7.32778053842163	1	1	simple	target
35	male	English	4.32141666666667	s2	{us: usx, uv: uv1}	{us: us1, uv: uv1}	s1	v1	target_s2_v2	sx_v1	s1_v1	ambiguous	s2	s1	v2	v1	1	2	4	3	competitor	distractor1	target	distractor2	competitor	target	competitor	distractor	1338	v2	15	filler	{us: us2, uv: uv2}	2	7.19893124068817	1	1	ambiguous	competitor
35	male	English	4.32141666666667	s2	{us: us1, uv: uv1}	{us: us1, uv: uv1}	s1	v1	target_s2_v2	s1_v1	s1_v1	ambiguous	s1	v1	v2	s2	4	1	2	3	distractor1	distractor2	target	competitor	competitor	target	distractor	competitor	1340	v2	16	filler	{us: us2, uv: uv2}	2	7.20042489294496	1	1	ambiguous	competitor
35	male	English	4.32141666666667	s1	{us: us2, uv: uv1}	{us: us2, uv: uv1}	s2	v1	target_s1_v2	s2_v1	s2_v1	ambiguous	s1	v1	v2	s2	1	4	2	3	competitor	distractor2	target	distractor1	competitor	target	competitor	distractor	1831	v2	17	filler	{us: us1, uv: uv2}	2	7.51261754467451	1	1	ambiguous	competitor
35	male	English	4.32141666666667	s1	{us: us2, uv: uv2}	{us: us1, uv: uvx}	s2	v1	s1_vx	s2_v2	target_s1_v2	complex	s1	v1	s2	v2	1	3	2	4	competitor	distractor2	distractor1	target	competitor	distractor	competitor	target	2164	v2	18	target	{us: us1, uv: uv2}	2	7.67971363996637	1	1	complex	competitor
35	male	English	4.32141666666667	v1	{us: us2, uv: uvx}	{us: us1, uv: uv2}	s1	v2	target_s2_vx	s1_v2	s2_v1	simple_c	v2	s2	v1	s1	3	4	1	2	distractor2	target	competitor	distractor1	target	competitor	distractor	target	3606	s2	19	filler	{us: us2, uv: uv1}	2	8.19035440376326	1	1	unambiguous	target
35	male	English	4.32141666666667	s2	{us: us2, uv: uvx}	{us: us1, uv: uv2}	v2	s1	s1_v2	target_s2_v1	s2_vx	simple	s2	s1	v2	v1	1	3	2	4	competitor	distractor2	distractor1	target	target	distractor	target	competitor	4089	v1	20	target	{us: us2, uv: uv1}	2	8.31605572036464	1	1	simple	target
35	male	English	4.32141666666667	v2	{us: usx, uv: uv2}	{us: us2, uv: uv1}	v1	s2	target_s1_v2	s2_v1	sx_v2	simple	s2	s1	v2	v1	3	4	1	2	distractor2	target	competitor	distractor1	target	target	distractor	competitor	3130	s1	21	target	{us: us1, uv: uv2}	2	8.0487882835342	1	1	simple	target
35	male	English	4.32141666666667	v2	{us: us2, uv: uv2}	{us: us1, uv: uvx}	s2	v1	s2_v2	target_s1_vx	s1_v2	complex_d	s1	v1	s2	v2	4	3	2	1	target	distractor2	distractor1	competitor	target	competitor	distractor	target	1862	s1	22	filler	{us: us1, uv: uv2}	2	7.52940645783701	1	1	unambiguous	target
35	male	English	4.32141666666667	s1	{us: usx, uv: uv1}	{us: us2, uv: uv2}	v2	s2	s1_v1	s2_v2	target_sx_v1	simple_c	v2	s1	v1	s2	2	1	4	3	distractor1	competitor	target	distractor2	target	target	distractor	competitor	2164	v1	23	filler	{us: us1, uv: uv1}	2	7.67971363996637	1	2	unambiguous	target
35	male	English	4.32141666666667	v1	{us: usx, uv: uv1}	{us: us2, uv: uv2}	v2	s2	target_s1_v1	s2_v2	sx_v1	simple	v2	s1	v1	s2	3	1	4	2	distractor1	target	competitor	distractor2	target	target	distractor	competitor	2138	s1	24	target	{us: us1, uv: uv1}	2	7.66762609158499	1	2	simple	target
35	male	English	4.32141666666667	v1	{us: us1, uv: uv2}	{us: usx, uv: uv1}	v2	s2	sx_v1	s1_v2	target_s1_v1	complex	s2	v2	s1	v1	4	2	1	3	distractor2	distractor1	target	competitor	target	distractor	competitor	target	9216	s1	25	target	{us: us1, uv: uv1}	2	9.12869638293567	1	2	complex	target
35	male	English	4.32141666666667	v2	{us: usx, uv: uv1}	{us: us1, uv: uv1}	s1	v1	sx_v1	s1_v1	target_s2_v2	ambiguous	s2	v1	s1	v2	4	3	2	1	target	distractor2	distractor1	competitor	target	competitor	distractor	target	1908	s2	26	filler	{us: us2, uv: uv2}	2	7.55381085200823	1	2	ambiguous	target
35	male	English	4.32141666666667	s1	{us: usx, uv: uv1}	{us: us1, uv: uv2}	s2	v1	target_s1_v2	s2_v1	sx_v1	simple_d	v1	s2	v2	s1	4	2	1	3	distractor2	distractor1	target	competitor	competitor	distractor	target	competitor	1392	v2	27	filler	{us: us2, uv: uv1}	2	7.23849684089437	1	2	ambiguous	competitor
35	male	English	4.32141666666667	v2	{us: us1, uv: uv1}	{us: usx, uv: uv2}	v1	s2	target_s1_v2	s1_v1	sx_v2	complex	s1	s2	v1	v2	4	3	2	1	target	distractor2	distractor1	competitor	target	target	competitor	distractor	2782	s1	28	target	{us: us1, uv: uv2}	2	7.93092537248339	1	2	complex	target
35	male	English	4.32141666666667	v2	{us: usx, uv: uv2}	{us: us2, uv: uv1}	s2	v1	sx_v2	s2_v1	target_s1_v2	simple	s2	v1	s1	v2	4	1	2	3	distractor1	distractor2	target	competitor	target	competitor	distractor	target	1478	s1	29	target	{us: us1, uv: uv2}	2	7.29844510150815	1	2	simple	target
35	male	English	4.32141666666667	v1	{us: us1, uv: uv2}	{us: usx, uv: uv1}	v2	s2	target_s1_v1	sx_v1	s1_v2	complex	s1	s2	v2	v1	4	3	2	1	target	distractor2	distractor1	competitor	target	target	distractor	competitor	3263	s1	30	target	{us: us1, uv: uv1}	2	8.09040229659332	1	2	complex	target
35	male	English	4.32141666666667	v1	{us: us2, uv: uv1}	{us: us1, uv: uvx}	s2	v2	s1_v1	target_s1_vx	s2_v1	complex_d	s1	v2	s2	v1	4	3	2	1	target	distractor2	distractor1	competitor	target	target	distractor	competitor	2360	s1	31	filler	{us: us1, uv: uv1}	2	7.76641689801966	1	2	unambiguous	target
35	male	English	4.32141666666667	v2	{us: usx, uv: uv1}	{us: us1, uv: uv2}	s2	v1	s2_v1	target_s1_v2	sx_v1	simple_d	s1	v2	s2	v1	2	3	4	1	target	competitor	distractor1	distractor2	target	target	distractor	competitor	1008	s1	32	filler	{us: us2, uv: uv1}	2	6.91572344863131	1	2	ambiguous	target
35	male	English	4.32141666666667	v1	{us: us2, uv: uv1}	{us: us1, uv: uvx}	s2	v2	s1_v1	target_s1_vx	s2_v1	complex_d	v1	s1	v2	s2	1	4	3	2	competitor	target	distractor2	distractor1	target	target	distractor	competitor	2918	s1	33	filler	{us: us1, uv: uv1}	2	7.97865372908273	1	2	unambiguous	target
35	male	English	4.32141666666667	v2	{us: us1, uv: uvx}	{us: us1, uv: uv2}	s1	s2	s1_v2	s1_vx	target_sx_v1	unambiguous	v1	s2	v2	s1	3	4	2	1	target	distractor2	competitor	distractor1	target	distractor	competitor	target	1770	v1	34	filler	{us: usx, uv: uv1}	2	7.47873482556787	2	2	unambiguous	target
35	male	English	4.32141666666667	s1	{us: us2, uv: uv1}	{us: us1, uv: uvx}	s2	v2	target_s1_v1	s1_vx	s2_v1	complex	v1	s1	v2	s2	2	4	3	1	target	competitor	distractor2	distractor1	competitor	target	distractor	competitor	1856	v1	35	target	{us: us1, uv: uv1}	2	7.52617891334615	2	2	complex	competitor
35	male	English	4.32141666666667	s1	{us: us1, uv: uv2}	{us: usx, uv: uv1}	v2	s2	target_sx_v1	s1_v2	s1_v1	complex_d	v2	v1	s2	s1	4	1	3	2	distractor1	target	distractor2	competitor	target	distractor	competitor	target	1544	v1	36	filler	{us: us1, uv: uv1}	2	7.34213173058472	2	2	unambiguous	target
35	male	English	4.32141666666667	s1	{us: us1, uv: uv1}	{us: usx, uv: uv2}	v1	s2	s1_v2	s1_v1	target_sx_v2	complex_d	s1	s2	v1	v2	1	3	2	4	competitor	distractor2	distractor1	target	target	target	competitor	distractor	2332	v2	37	filler	{us: us1, uv: uv2}	2	7.75448154747038	2	2	unambiguous	target
35	male	English	4.32141666666667	s1	{us: usx, uv: uv1}	{us: us2, uv: uvx}	s2	v1	s2_vx	sx_v1	target_s1_v2	ambiguous	s1	v2	v1	s2	1	4	3	2	competitor	target	distractor2	distractor1	competitor	distractor	competitor	target	2024	v2	38	filler	{us: us1, uv: uv2}	2	7.61283103040736	2	2	ambiguous	competitor
35	male	English	4.32141666666667	s2	{us: usx, uv: uv2}	{us: us2, uv: uv1}	s1	v2	s1_v2	target_s2_v1	sx_v2	simple_d	s2	s1	v2	v1	1	2	3	4	competitor	distractor1	distractor2	target	distractor1	target	distractor	competitor	1079	v1	39	filler	{us: us1, uv: uv2}	2	6.98378996525813	2	2	ambiguous	distractor
35	male	English	4.32141666666667	s1	{us: us2, uv: uv2}	{us: us1, uv: uvx}	s2	v1	s2_v2	s1_vx	target_s1_v2	complex	s1	v1	s2	v2	1	3	2	4	competitor	distractor2	distractor1	target	competitor	competitor	distractor	target	2329	v2	40	target	{us: us1, uv: uv2}	2	7.75319426988434	2	2	complex	competitor
35	male	English	4.32141666666667	s2	{us: us2, uv: uv1}	{us: usx, uv: uv2}	v1	s1	s2_v1	target_sx_v2	s2_v2	complex_d	s2	v1	v2	s1	1	2	4	3	competitor	distractor1	target	distractor2	target	competitor	distractor	target	1964	v2	41	filler	{us: us2, uv: uv2}	2	7.58273848891441	2	2	unambiguous	target
35	male	English	4.32141666666667	v1	{us: usx, uv: uv1}	{us: us1, uv: uv1}	v2	s1	target_s2_vx	s1_v1	sx_v1	unambiguous	s1	s2	v1	v2	3	4	1	2	distractor2	target	competitor	distractor1	target	target	distractor	competitor	1746	s2	42	filler	{us: us2, uv: uvx}	2	7.46508273639955	2	2	unambiguous	target
35	male	English	4.32141666666667	s2	{us: us2, uv: uv2}	{us: usx, uv: uv1}	v2	s1	s2_v2	target_sx_v1	s2_v1	complex_d	s2	v1	v2	s1	1	3	4	2	competitor	target	distractor1	distractor2	target	competitor	distractor	target	1283	v1	43	filler	{us: us2, uv: uv1}	2	7.15695636461564	2	2	unambiguous	target
35	male	English	4.32141666666667	s2	{us: us2, uv: uv1}	{us: usx, uv: uv1}	v1	v2	s2_v1	sx_v1	target_s1_vx	unambiguous	s2	v1	v2	s1	1	2	3	4	competitor	distractor1	distractor2	target	target	competitor	distractor	target	1653	s1	44	filler	{us: us1, uv: uvx}	2	7.41034709782102	2	2	unambiguous	target
35	male	English	4.32141666666667	v2	{us: usx, uv: uv1}	{us: us2, uv: uv1}	s2	v1	target_s1_v2	s2_v1	sx_v1	ambiguous	v1	s2	v2	s1	3	2	1	4	distractor2	distractor1	competitor	target	target	target	distractor	competitor	1355	s1	45	filler	{us: us1, uv: uv2}	2	7.2115567333138	2	3	ambiguous	target
35	male	English	4.32141666666667	s2	{us: us2, uv: uvx}	{us: us1, uv: uv2}	s1	v2	s2_vx	target_s2_v1	s1_v2	simple	s1	v1	s2	v2	3	1	4	2	distractor1	target	competitor	distractor2	target	competitor	target	distractor	2554	v1	46	target	{us: us2, uv: uv1}	2	7.84541603659248	2	3	simple	target
35	male	English	4.32141666666667	v2	{us: us2, uv: uv2}	{us: us1, uv: uvx}	s2	v1	target_s1_vx	s2_v2	s1_v2	complex_d	s1	v1	s2	v2	4	3	2	1	target	distractor2	distractor1	competitor	target	distractor	competitor	target	3750	s1	47	filler	{us: us1, uv: uv2}	2	8.22951111896446	2	3	unambiguous	target
35	male	English	4.32141666666667	v1	{us: us2, uv: uv2}	{us: usx, uv: uv1}	v2	s1	s2_v2	sx_v1	target_s2_v1	complex	s2	v1	v2	s1	2	3	4	1	target	competitor	distractor1	distractor2	target	competitor	distractor	target	3027	s2	48	target	{us: us2, uv: uv1}	2	8.01532730902172	2	3	complex	target
35	male	English	4.32141666666667	s1	{us: us1, uv: uv2}	{us: usx, uv: uv1}	v2	s2	s1_v1	target_sx_v1	s1_v2	complex_d	s1	s2	v2	v1	1	3	2	4	competitor	distractor2	distractor1	target	target	target	distractor	competitor	2063	v1	49	filler	{us: us1, uv: uv1}	2	7.63191651307125	2	3	unambiguous	target
35	male	English	4.32141666666667	s2	{us: us2, uv: uvx}	{us: us1, uv: uv2}	v2	s1	target_s2_v1	s1_v2	s2_vx	simple	s1	v1	v2	s2	4	3	1	2	distractor2	target	distractor1	competitor	competitor	target	distractor	competitor	1640	v1	50	target	{us: us2, uv: uv1}	2	7.40245152081824	2	3	simple	competitor
35	male	English	4.32141666666667	v1	{us: us2, uv: uvx}	{us: us1, uv: uv2}	v2	s1	s2_v1	s1_v2	target_s2_vx	simple_c	s1	v1	v2	s2	2	3	1	4	distractor2	competitor	distractor1	target	target	target	distractor	competitor	1310	s2	51	filler	{us: us2, uv: uv1}	2	7.1777824161952	2	3	unambiguous	target
35	male	English	4.32141666666667	s1	{us: us1, uv: uvx}	{us: us2, uv: uv1}	v1	s2	s2_v1	s1_vx	target_s1_v2	simple	s2	v1	v2	s1	4	2	1	3	distractor2	distractor1	target	competitor	target	distractor	competitor	target	3602	v2	52	target	{us: us1, uv: uv2}	2	8.1892445257359	2	3	simple	target
35	male	English	4.32141666666667	s1	{us: us2, uv: uv1}	{us: us1, uv: uvx}	s2	v2	target_s1_v1	s1_vx	s2_v1	complex	s1	v2	s2	v1	1	3	2	4	competitor	distractor2	distractor1	target	target	target	distractor	competitor	6180	v1	53	target	{us: us1, uv: uv1}	2	8.72907355045174	2	3	complex	target
35	male	English	4.32141666666667	v1	{us: usx, uv: uv1}	{us: us2, uv: uv2}	s2	v2	s2_v2	sx_v1	target_s1_v1	simple	s1	s2	v1	v2	3	2	4	1	target	distractor1	competitor	distractor2	target	distractor	competitor	target	2602	s1	54	target	{us: us1, uv: uv1}	2	7.86403565907245	2	3	simple	target
35	male	English	4.32141666666667	v1	{us: us2, uv: uvx}	{us: us2, uv: uv1}	s1	s2	target_sx_v2	s2_vx	s2_v1	unambiguous	v2	s2	s1	v1	4	3	2	1	target	distractor2	distractor1	competitor	target	target	competitor	distractor	1956	v2	55	filler	{us: usx, uv: uv2}	2	7.57865685059476	2	3	unambiguous	target
35	male	English	4.32141666666667	v2	{us: us2, uv: uv1}	{us: usx, uv: uv2}	v1	s1	s2_v1	sx_v2	target_s2_v2	complex	s2	v1	v2	s1	3	2	4	1	target	distractor1	competitor	distractor2	distractor2	competitor	distractor	target	11004	s2	56	target	{us: us2, uv: uv2}	2	9.30601412204446	2	3	complex	distractor
35	male	English	4.32141666666667	s2	{us: us1, uv: uvx}	{us: us1, uv: uv2}	v2	s1	s1_v2	target_sx_v1	s1_vx	unambiguous	v1	v2	s1	s2	4	2	3	1	target	distractor1	distractor2	competitor	target	distractor	target	competitor	1962	v1	57	filler	{us: usx, uv: uv1}	2	7.58171964012531	2	3	unambiguous	target
35	male	English	4.32141666666667	s2	{us: us1, uv: uv1}	{us: us2, uv: uvx}	s1	v2	target_s2_v1	s1_v1	s2_vx	complex	v1	s2	s1	v2	2	3	4	1	target	competitor	distractor1	distractor2	target	target	competitor	distractor	11172	v1	58	target	{us: us2, uv: uv1}	2	9.32116592706507	2	3	complex	target
35	male	English	4.32141666666667	v2	{us: us1, uv: uv1}	{us: usx, uv: uv2}	v1	s2	target_s1_v2	sx_v2	s1_v1	complex	v2	s2	v1	s1	1	3	2	4	competitor	distractor2	distractor1	target	competitor	target	distractor	competitor	5702	s1	59	target	{us: us1, uv: uv2}	2	8.64857226947262	2	3	complex	competitor
35	male	English	4.32141666666667	v2	{us: us2, uv: uvx}	{us: us1, uv: uv2}	v1	s2	s2_vx	s2_v1	target_s1_v2	simple_d	s1	v1	s2	v2	4	2	3	1	target	distractor1	distractor2	competitor	target	competitor	target	distractor	2006	s1	60	filler	{us: us2, uv: uv1}	2	7.60389796852188	2	3	ambiguous	target
35	male	English	4.32141666666667	v1	{us: us1, uv: uv2}	{us: usx, uv: uv1}	v2	s2	sx_v1	s1_v2	target_s1_v1	complex	v2	v1	s2	s1	2	1	3	4	distractor1	competitor	distractor2	target	target	distractor	competitor	target	7638	s1	61	target	{us: us1, uv: uv1}	2	8.94089106778546	2	3	complex	target
35	male	English	4.32141666666667	s1	{us: us2, uv: uv2}	{us: us2, uv: uv2}	s2	v2	target_s1_v1	s2_v2	s2_v2	ambiguous	v1	v2	s2	s1	4	3	2	1	target	distractor2	distractor1	competitor	competitor	target	distractor	competitor	1240	v1	62	filler	{us: us1, uv: uv1}	2	7.12286665859908	2	3	ambiguous	competitor
35	male	English	4.32141666666667	v1	{us: usx, uv: uv2}	{us: us1, uv: uv2}	s1	v2	sx_v2	s1_v2	target_s2_v1	ambiguous	v1	s2	v2	s1	1	4	3	2	competitor	target	distractor2	distractor1	target	competitor	distractor	target	1538	s2	63	filler	{us: us2, uv: uv1}	2	7.33823815006559	2	3	ambiguous	target
35	male	English	4.32141666666667	s2	{us: us2, uv: uvx}	{us: us1, uv: uv2}	s1	v2	s2_vx	s1_v2	target_s2_v1	simple	v2	s2	v1	s1	2	4	1	3	distractor2	competitor	target	distractor1	target	competitor	distractor	target	3400	v1	64	target	{us: us2, uv: uv1}	2	8.13153071060425	2	3	simple	target
35	male	English	4.32141666666667	v2	{us: us1, uv: uvx}	{us: us2, uv: uv1}	v1	s2	s2_v1	target_s1_vx	s1_v2	simple_c	s2	v1	v2	s1	3	2	1	4	distractor2	distractor1	competitor	target	target	distractor	competitor	target	4711	s1	65	filler	{us: us1, uv: uv2}	2	8.45765547870004	2	3	unambiguous	target
25	Male	English	3.00336666666667	s2	{us: us2, uv: uv1}	{us: usx, uv: uv2}	v1	s1	s2_v1	target_sx_v2	s2_v2	complex_d	s2	v1	v2	s1	1	2	4	3	competitor	distractor1	target	distractor2	target	competitor	distractor	target	8681	v2	0	filler	{us: us2, uv: uv2}	3	9.06889200839181	1	1	unambiguous	target
25	Male	English	3.00336666666667	v1	{us: usx, uv: uv1}	{us: us1, uv: uv2}	s1	v2	sx_v1	s1_v2	target_s2_v1	simple	v1	s2	s1	v2	1	3	4	2	competitor	target	distractor1	distractor2	competitor	competitor	distractor	target	4083	s2	1	target	{us: us2, uv: uv1}	3	8.31458729131958	1	1	simple	competitor
25	Male	English	3.00336666666667	v2	{us: us2, uv: uv1}	{us: usx, uv: uv2}	v1	s1	target_s2_v2	s2_v1	sx_v2	complex	s1	v2	v1	s2	2	3	1	4	distractor2	competitor	distractor1	target	competitor	target	competitor	distractor	3842	s2	2	target	{us: us2, uv: uv2}	3	8.2537483433285	1	1	complex	competitor
25	Male	English	3.00336666666667	s1	{us: us2, uv: uv1}	{us: us1, uv: uvx}	s2	v2	s2_v1	target_s1_v1	s1_vx	complex	v1	v2	s1	s2	3	4	2	1	target	distractor2	competitor	distractor1	target	competitor	target	distractor	2000	v1	3	target	{us: us1, uv: uv1}	3	7.60090245954208	1	1	complex	target
25	Male	English	3.00336666666667	s1	{us: us1, uv: uv2}	{us: usx, uv: uv1}	v2	s2	s1_v1	target_sx_v1	s1_v2	complex_d	v1	v2	s1	s2	3	2	4	1	target	distractor1	competitor	distractor2	target	target	distractor	competitor	1172	v1	4	filler	{us: us1, uv: uv1}	3	7.06646697013696	1	1	unambiguous	target
25	Male	English	3.00336666666667	s1	{us: usx, uv: uv1}	{us: us1, uv: uv2}	s2	v1	s2_v1	target_s1_v2	sx_v1	simple_d	s2	s1	v2	v1	2	1	4	3	distractor1	competitor	target	distractor2	competitor	target	distractor	competitor	3929	v2	5	filler	{us: us2, uv: uv1}	3	8.27614021955846	1	1	ambiguous	competitor
25	Male	English	3.00336666666667	v2	{us: usx, uv: uv2}	{us: us2, uv: uv1}	v1	s2	target_s1_v2	sx_v2	s2_v1	simple	v1	s2	v2	s1	3	1	2	4	distractor1	distractor2	competitor	target	target	target	competitor	distractor	1935	s1	6	target	{us: us1, uv: uv2}	3	7.56786260546388	1	1	simple	target
25	Male	English	3.00336666666667	s1	{us: us2, uv: uvx}	{us: us2, uv: uvx}	v1	s2	s2_vx	s2_vx	target_sx_v2	unambiguous	v2	v1	s2	s1	4	2	3	1	target	distractor1	distractor2	competitor	target	competitor	distractor	target	2561	v2	7	filler	{us: usx, uv: uv2}	3	7.84815308619953	1	1	unambiguous	target
25	Male	English	3.00336666666667	s2	{us: us2, uv: uvx}	{us: us1, uv: uv1}	v1	s1	s2_vx	target_s2_v2	s1_v1	simple	s1	v1	v2	s2	4	2	1	3	distractor2	distractor1	target	competitor	target	competitor	target	distractor	2413	v2	8	target	{us: us2, uv: uv2}	3	7.78862606562503	1	1	simple	target
25	Male	English	3.00336666666667	s2	{us: usx, uv: uv1}	{us: us2, uv: uv2}	s1	v1	sx_v1	target_s2_v2	s1_v1	simple_d	s2	s1	v2	v1	1	2	4	3	competitor	distractor1	target	distractor2	target	competitor	distractor	target	2453	v2	9	filler	{us: us1, uv: uv1}	3	7.80506704425849	1	1	ambiguous	target
25	Male	English	3.00336666666667	s2	{us: us1, uv: uv1}	{us: us2, uv: uvx}	s1	v2	target_s2_v1	s2_vx	s1_v1	complex	s2	v2	v1	s1	1	4	2	3	competitor	distractor2	target	distractor1	competitor	target	distractor	competitor	2599	v1	10	target	{us: us2, uv: uv1}	3	7.86288203464149	1	1	complex	competitor
25	Male	English	3.00336666666667	v1	{us: us1, uv: uvx}	{us: us2, uv: uv2}	s2	v2	s1_v1	s2_v2	target_s1_vx	simple_c	v2	v1	s2	s1	2	3	1	4	distractor2	competitor	distractor1	target	target	target	distractor	competitor	2411	s1	11	filler	{us: us1, uv: uv1}	3	7.78779687818117	1	1	unambiguous	target
25	Male	English	3.00336666666667	s2	{us: us2, uv: uv2}	{us: us2, uv: uvx}	s1	v2	s2_v2	target_sx_v1	s2_vx	unambiguous	s1	v1	v2	s2	4	1	3	2	distractor1	target	distractor2	competitor	target	competitor	target	distractor	2384	v1	12	filler	{us: usx, uv: uv1}	3	7.77653502818524	1	1	unambiguous	target
25	Male	English	3.00336666666667	v2	{us: us1, uv: uv2}	{us: us1, uv: uv2}	s1	v1	s1_v2	target_s2_vx	s1_v2	unambiguous	v1	v2	s2	s1	2	4	1	3	distractor2	competitor	target	distractor1	target	competitor	target	distractor	3062	s2	13	filler	{us: us2, uv: uvx}	3	8.02682357621763	1	1	unambiguous	target
25	Male	English	3.00336666666667	s1	{us: usx, uv: uv2}	{us: us2, uv: uv1}	v1	s2	target_sx_v2	s2_v1	s1_v2	simple_c	v2	s1	s2	v1	2	4	3	1	target	competitor	distractor2	distractor1	target	competitor	distractor	target	8745	v2	14	filler	{us: us1, uv: uv2}	3	9.0762373874527	1	1	unambiguous	target
25	Male	English	3.00336666666667	s2	{us: usx, uv: uv1}	{us: us1, uv: uv2}	v2	s1	s2_v1	s1_v2	target_sx_v1	simple_c	v2	s1	v1	s2	4	1	2	3	distractor1	distractor2	target	competitor	target	target	distractor	competitor	4391	v1	15	filler	{us: us2, uv: uv1}	3	8.38731227056172	1	1	unambiguous	target
25	Male	English	3.00336666666667	v1	{us: usx, uv: uv2}	{us: us1, uv: uv2}	s1	v2	s1_v2	target_s2_v1	sx_v2	ambiguous	v2	s1	s2	v1	4	2	1	3	distractor2	distractor1	target	competitor	target	distractor	target	competitor	2222	s2	16	filler	{us: us2, uv: uv1}	3	7.70616297019958	1	1	ambiguous	target
25	Male	English	3.00336666666667	v1	{us: usx, uv: uv1}	{us: us2, uv: uv2}	s2	v2	s2_v2	sx_v1	target_s1_v1	simple	v1	s2	s1	v2	1	2	4	3	competitor	distractor1	target	distractor2	target	distractor	competitor	target	1881	s1	17	target	{us: us1, uv: uv1}	3	7.53955882930103	1	1	simple	target
25	Male	English	3.00336666666667	v1	{us: us2, uv: uv1}	{us: usx, uv: uv2}	v2	s2	target_s1_vx	s2_v1	sx_v2	unambiguous	v1	s1	v2	s2	1	3	4	2	competitor	target	distractor1	distractor2	target	target	competitor	distractor	1617	s1	18	filler	{us: us1, uv: uvx}	3	7.38832785957711	1	1	unambiguous	target
25	Male	English	3.00336666666667	v2	{us: usx, uv: uv2}	{us: us1, uv: uv1}	v1	s1	target_s2_v2	sx_v2	s1_v1	simple	v2	s1	v1	s2	1	3	2	4	competitor	distractor2	distractor1	target	target	target	competitor	distractor	2286	s2	19	target	{us: us2, uv: uv2}	3	7.73455884435476	1	1	simple	target
25	Male	English	3.00336666666667	s1	{us: us1, uv: uvx}	{us: us2, uv: uv2}	s2	v2	s1_vx	target_s1_v1	s2_v2	simple	v1	s1	s2	v2	2	3	4	1	target	competitor	distractor1	distractor2	target	competitor	target	distractor	3127	v1	20	target	{us: us1, uv: uv1}	3	8.04782935745784	1	1	simple	target
25	Male	English	3.00336666666667	v2	{us: us1, uv: uv1}	{us: us1, uv: uvx}	s1	v1	s1_vx	s1_v1	target_s2_v2	ambiguous	v1	s1	s2	v2	4	2	1	3	distractor2	distractor1	target	competitor	competitor	distractor	competitor	target	2472	s2	21	filler	{us: us2, uv: uv2}	3	7.81278281857758	1	1	ambiguous	competitor
25	Male	English	3.00336666666667	v1	{us: usx, uv: uv1}	{us: us1, uv: uv2}	v2	s1	target_s2_v1	s1_v2	sx_v1	simple	v2	s1	v1	s2	3	1	2	4	distractor1	distractor2	competitor	target	target	target	distractor	competitor	1689	s2	22	target	{us: us2, uv: uv1}	3	7.4318919168078	1	1	simple	target
25	Male	English	3.00336666666667	v2	{us: usx, uv: uv1}	{us: us1, uv: uv2}	s2	v1	sx_v1	target_s1_v2	s2_v1	simple_d	v1	s2	s1	v2	4	2	1	3	distractor2	distractor1	target	competitor	competitor	competitor	distractor	target	1636	s1	23	filler	{us: us2, uv: uv1}	3	7.40000951716269	1	2	ambiguous	competitor
25	Male	English	3.00336666666667	s1	{us: us2, uv: uv2}	{us: us2, uv: uv2}	s2	v2	target_s1_v1	s2_v2	s2_v2	ambiguous	s2	v2	s1	v1	3	1	2	4	distractor1	distractor2	competitor	target	target	target	competitor	distractor	2407	v1	24	filler	{us: us1, uv: uv1}	3	7.78613643778307	1	2	ambiguous	target
25	Male	English	3.00336666666667	s1	{us: usx, uv: uv2}	{us: us1, uv: uv1}	s2	v2	s2_v2	sx_v2	target_s1_v1	simple_d	v2	s1	v1	s2	2	4	1	3	distractor2	competitor	target	distractor1	target	target	competitor	distractor	1515	v1	25	filler	{us: us2, uv: uv2}	3	7.32317071794347	1	2	ambiguous	target
25	Male	English	3.00336666666667	s1	{us: us2, uv: uvx}	{us: us1, uv: uv2}	s2	v2	s1_v2	s2_vx	target_sx_v1	unambiguous	v1	s1	v2	s2	2	4	3	1	target	competitor	distractor2	distractor1	target	distractor	competitor	target	1957	v1	26	filler	{us: usx, uv: uv1}	3	7.57916796739608	1	2	unambiguous	target
25	Male	English	3.00336666666667	s1	{us: us2, uv: uvx}	{us: us1, uv: uv1}	v2	s2	s2_vx	s2_v2	target_s1_v1	simple_d	s1	v1	v2	s2	1	3	4	2	competitor	target	distractor1	distractor2	target	competitor	target	distractor	1488	v1	27	filler	{us: us2, uv: uv2}	3	7.30518821539304	1	2	ambiguous	target
25	Male	English	3.00336666666667	v1	{us: usx, uv: uv1}	{us: us1, uv: uv2}	v2	s1	target_s2_v1	s1_v2	sx_v1	simple	s2	s1	v2	v1	4	3	2	1	target	distractor2	distractor1	competitor	target	target	distractor	competitor	1723	s2	28	target	{us: us2, uv: uv1}	3	7.45182223652793	1	2	simple	target
25	Male	English	3.00336666666667	s1	{us: usx, uv: uv1}	{us: us2, uv: uv2}	s2	v2	s2_v2	target_sx_v1	s1_v1	simple_c	v1	s2	s1	v2	3	2	4	1	target	distractor1	competitor	distractor2	target	distractor	competitor	target	2879	v1	29	filler	{us: us1, uv: uv1}	3	7.96519829061218	1	2	unambiguous	target
25	Male	English	3.00336666666667	v1	{us: us1, uv: uv2}	{us: usx, uv: uv1}	v2	s2	s1_v2	target_s1_v1	sx_v1	complex	v1	s1	s2	v2	1	4	3	2	competitor	target	distractor2	distractor1	target	competitor	target	distractor	4421	s1	30	target	{us: us1, uv: uv1}	3	8.39412119382624	1	2	complex	target
25	Male	English	3.00336666666667	v2	{us: us2, uv: uvx}	{us: us1, uv: uv1}	v1	s1	s2_v2	target_s2_vx	s1_v1	simple_c	v1	v2	s2	s1	2	1	4	3	distractor1	competitor	target	distractor2	target	target	competitor	distractor	2307	s2	31	filler	{us: us2, uv: uv2}	3	7.74370325817375	1	2	unambiguous	target
25	Male	English	3.00336666666667	v2	{us: usx, uv: uv2}	{us: us2, uv: uv1}	v1	s2	sx_v2	s2_v1	target_s1_v2	simple	v2	s1	s2	v1	1	4	3	2	competitor	target	distractor2	distractor1	target	competitor	distractor	target	1693	s1	32	target	{us: us1, uv: uv2}	3	7.43425738213314	1	2	simple	target
25	Male	English	3.00336666666667	v2	{us: us2, uv: uv1}	{us: usx, uv: uv2}	v1	s1	target_s2_v2	sx_v2	s2_v1	complex	v2	v1	s2	s1	1	2	4	3	competitor	distractor1	target	distractor2	target	target	distractor	competitor	1412	s2	33	target	{us: us2, uv: uv2}	3	7.25276241805319	1	2	complex	target
25	Male	English	3.00336666666667	v1	{us: us2, uv: uv1}	{us: us1, uv: uvx}	s2	v2	s2_v1	s1_v1	target_s1_vx	complex_d	v1	v2	s1	s2	1	4	2	3	competitor	distractor2	target	distractor1	target	competitor	target	distractor	5998	s1	34	filler	{us: us1, uv: uv1}	3	8.69918135930895	2	2	unambiguous	target
25	Male	English	3.00336666666667	v1	{us: us1, uv: uv2}	{us: us1, uv: uv2}	s1	v2	s1_v2	s1_v2	target_s2_v1	ambiguous	v2	s1	s2	v1	4	2	1	3	distractor2	distractor1	target	competitor	target	competitor	distractor	target	1625	s2	35	filler	{us: us2, uv: uv1}	3	7.39326309476384	2	2	ambiguous	target
25	Male	English	3.00336666666667	v1	{us: us1, uv: uv2}	{us: usx, uv: uv1}	v2	s2	s1_v2	target_s1_v1	sx_v1	complex	v1	s2	v2	s1	1	3	2	4	competitor	distractor2	distractor1	target	target	competitor	target	distractor	1952	s1	36	target	{us: us1, uv: uv1}	3	7.57660976697304	2	2	complex	target
25	Male	English	3.00336666666667	v2	{us: us2, uv: uv2}	{us: us1, uv: uvx}	s2	v1	target_s1_vx	s2_v2	s1_v2	complex_d	v2	s1	v1	s2	1	4	3	2	competitor	target	distractor2	distractor1	target	distractor	competitor	target	2462	s1	37	filler	{us: us1, uv: uv2}	3	7.8087293067444	2	2	unambiguous	target
25	Male	English	3.00336666666667	v1	{us: us1, uv: uv1}	{us: us2, uv: uvx}	s1	v2	s2_v1	s1_v1	target_s2_vx	complex_d	v1	s2	s1	v2	1	3	4	2	competitor	target	distractor1	distractor2	target	target	competitor	distractor	2744	s2	38	filler	{us: us2, uv: uv1}	3	7.91717198884578	2	2	unambiguous	target
25	Male	English	3.00336666666667	v1	{us: us1, uv: uv1}	{us: us2, uv: uvx}	s1	v2	s2_v1	target_s2_vx	s1_v1	complex_d	s2	v2	v1	s1	3	4	2	1	target	distractor2	competitor	distractor1	target	target	distractor	competitor	2377	s2	39	filler	{us: us2, uv: uv1}	3	7.77359446736019	2	2	unambiguous	target
25	Male	English	3.00336666666667	v1	{us: us2, uv: uv1}	{us: us2, uv: uv1}	v2	s2	target_s1_vx	s2_v1	s2_v1	unambiguous	v1	s1	v2	s2	1	3	4	2	competitor	target	distractor1	distractor2	target	target	competitor	distractor	1431	s1	40	filler	{us: us1, uv: uvx}	3	7.26612877955645	2	2	unambiguous	target
25	Male	English	3.00336666666667	s1	{us: us2, uv: uv2}	{us: us1, uv: uvx}	s2	v1	s1_vx	s2_v2	target_s1_v2	complex	v2	s1	v1	s2	2	4	3	1	target	competitor	distractor2	distractor1	competitor	distractor	competitor	target	1361	v2	41	target	{us: us1, uv: uv2}	3	7.21597500265147	2	2	complex	competitor
25	Male	English	3.00336666666667	s2	{us: usx, uv: uv2}	{us: us2, uv: uv1}	s1	v2	s1_v2	sx_v2	target_s2_v1	simple_d	v1	s2	v2	s1	2	4	3	1	target	competitor	distractor2	distractor1	target	target	competitor	distractor	2805	v1	42	filler	{us: us1, uv: uv2}	3	7.9391588179568	2	2	ambiguous	target
25	Male	English	3.00336666666667	v1	{us: us1, uv: uvx}	{us: us2, uv: uv2}	s2	v2	target_s1_vx	s1_v1	s2_v2	simple_c	v1	s1	s2	v2	1	3	4	2	competitor	target	distractor1	distractor2	target	competitor	target	distractor	2352	s1	43	filler	{us: us1, uv: uv1}	3	7.76302130901852	2	2	unambiguous	target
25	Male	English	3.00336666666667	s2	{us: us2, uv: uv1}	{us: usx, uv: uv2}	v1	s1	s2_v2	s2_v1	target_sx_v2	complex_d	s1	v2	v1	s2	4	3	1	2	distractor2	target	distractor1	competitor	target	target	competitor	distractor	3736	v2	44	filler	{us: us2, uv: uv2}	3	8.22577079934873	2	2	unambiguous	target
25	Male	English	3.00336666666667	s1	{us: us2, uv: uvx}	{us: us2, uv: uvx}	s2	v1	s2_vx	s2_vx	target_s1_v2	ambiguous	s2	v1	s1	v2	3	1	2	4	distractor1	distractor2	competitor	target	target	competitor	distractor	target	2338	v2	45	filler	{us: us1, uv: uv2}	3	7.75705114203201	2	3	ambiguous	target
25	Male	English	3.00336666666667	s1	{us: us2, uv: uvx}	{us: usx, uv: uv2}	s2	v2	s2_vx	sx_v2	target_s1_v1	ambiguous	s1	v1	s2	v2	1	3	4	2	competitor	target	distractor1	distractor2	target	competitor	distractor	target	1572	v1	46	filler	{us: us1, uv: uv1}	3	7.36010397298915	2	3	ambiguous	target
25	Male	English	3.00336666666667	v1	{us: us2, uv: uv2}	{us: usx, uv: uv2}	s2	v2	s2_v2	target_s1_v1	sx_v2	ambiguous	s2	v2	s1	v1	4	1	2	3	distractor1	distractor2	target	competitor	competitor	competitor	target	distractor	1281	s1	47	filler	{us: us1, uv: uv1}	3	7.15539630189673	2	3	ambiguous	competitor
25	Male	English	3.00336666666667	v1	{us: us1, uv: uv2}	{us: usx, uv: uv1}	v2	s2	target_s1_v1	sx_v1	s1_v2	complex	v1	v2	s1	s2	1	2	4	3	competitor	distractor1	target	distractor2	target	target	distractor	competitor	1206	s1	48	target	{us: us1, uv: uv1}	3	7.09506437728713	2	3	complex	target
25	Male	English	3.00336666666667	v1	{us: usx, uv: uv1}	{us: us2, uv: uv2}	v2	s2	sx_v1	s2_v2	target_s1_v1	simple	s2	s1	v2	v1	4	3	1	2	distractor2	target	distractor1	competitor	competitor	competitor	distractor	target	1587	s1	49	target	{us: us1, uv: uv1}	3	7.36960072052641	2	3	simple	competitor
25	Male	English	3.00336666666667	s1	{us: us1, uv: uv1}	{us: us1, uv: uv1}	v1	s2	s1_v1	s1_v1	target_sx_v2	unambiguous	s2	v1	v2	s1	4	2	1	3	distractor2	distractor1	target	competitor	target	distractor	competitor	target	1281	v2	50	filler	{us: usx, uv: uv2}	3	7.15539630189673	2	3	unambiguous	target
25	Male	English	3.00336666666667	s2	{us: us1, uv: uv1}	{us: us2, uv: uvx}	s1	v2	target_s2_v1	s1_v1	s2_vx	complex	v1	s2	s1	v2	2	3	4	1	target	competitor	distractor1	distractor2	competitor	target	competitor	distractor	1740	v1	51	target	{us: us2, uv: uv1}	3	7.46164039220858	2	3	complex	competitor
25	Male	English	3.00336666666667	s1	{us: us1, uv: uv2}	{us: usx, uv: uv1}	v2	s2	s1_v2	s1_v1	target_sx_v1	complex_d	v1	s1	s2	v2	2	4	3	1	target	competitor	distractor2	distractor1	target	competitor	target	distractor	3178	v1	52	filler	{us: us1, uv: uv1}	3	8.06400734709666	2	3	unambiguous	target
25	Male	English	3.00336666666667	v2	{us: usx, uv: uv1}	{us: us2, uv: uv2}	s2	v1	s2_v2	sx_v1	target_s1_vx	unambiguous	v2	v1	s1	s2	1	4	2	3	competitor	distractor2	target	distractor1	target	distractor	competitor	target	2469	s1	53	filler	{us: us1, uv: uvx}	3	7.81156848934518	2	3	unambiguous	target
25	Male	English	3.00336666666667	v2	{us: us2, uv: uv1}	{us: usx, uv: uv2}	v1	s1	s2_v1	sx_v2	target_s2_v2	complex	s2	v1	v2	s1	3	2	4	1	target	distractor1	competitor	distractor2	target	competitor	distractor	target	1928	s2	54	target	{us: us2, uv: uv2}	3	7.56423847517049	2	3	complex	target
25	Male	English	3.00336666666667	v1	{us: us1, uv: uv2}	{us: usx, uv: uv1}	v2	s2	target_s1_v1	s1_v2	sx_v1	complex	v2	s1	s2	v1	4	1	3	2	distractor1	target	distractor2	competitor	target	target	competitor	distractor	3214	s1	55	target	{us: us1, uv: uv1}	3	8.07527154629746	2	3	complex	target
25	Male	English	3.00336666666667	v1	{us: us2, uv: uv1}	{us: us1, uv: uvx}	s2	v2	target_s1_vx	s2_v1	s1_v1	complex_d	v1	v2	s2	s1	1	3	2	4	competitor	distractor2	distractor1	target	target	distractor	competitor	target	2160	s1	56	filler	{us: us1, uv: uv1}	3	7.67786350067821	2	3	unambiguous	target
25	Male	English	3.00336666666667	s1	{us: us2, uv: uv1}	{us: us2, uv: uv1}	s2	v1	s2_v1	s2_v1	target_s1_v2	ambiguous	s1	v1	s2	v2	1	3	2	4	competitor	distractor2	distractor1	target	target	competitor	distractor	target	1055	v2	57	filler	{us: us1, uv: uv2}	3	6.96129604591017	2	3	ambiguous	target
25	Male	English	3.00336666666667	s1	{us: us1, uv: uv2}	{us: usx, uv: uv1}	v2	s2	s1_v1	s1_v2	target_sx_v1	complex_d	v2	s1	s2	v1	2	1	3	4	distractor1	competitor	distractor2	target	target	target	competitor	distractor	1848	v1	58	filler	{us: us1, uv: uv1}	3	7.52185925220163	2	3	unambiguous	target
25	Male	English	3.00336666666667	s1	{us: us1, uv: uv2}	{us: usx, uv: uv1}	v2	s2	s1_v2	s1_v1	target_sx_v1	complex_d	v1	s2	v2	s1	4	3	2	1	target	distractor2	distractor1	competitor	target	competitor	target	distractor	1549	v1	59	filler	{us: us1, uv: uv1}	3	7.34536484041687	2	3	unambiguous	target
25	Male	English	3.00336666666667	v2	{us: us1, uv: uvx}	{us: usx, uv: uv1}	s1	v1	s1_vx	target_s2_v2	sx_v1	ambiguous	s2	v2	v1	s1	2	4	3	1	target	competitor	distractor2	distractor1	competitor	competitor	target	distractor	2014	s2	60	filler	{us: us2, uv: uv2}	3	7.60787807327851	2	3	ambiguous	competitor
25	Male	English	3.00336666666667	s1	{us: us2, uv: uv1}	{us: us1, uv: uvx}	s2	v2	s1_vx	s2_v1	target_s1_v1	complex	v1	v2	s2	s1	4	3	2	1	target	distractor2	distractor1	competitor	competitor	distractor	competitor	target	2078	v1	61	target	{us: us1, uv: uv1}	3	7.63916117165917	2	3	complex	competitor
25	Male	English	3.00336666666667	s2	{us: us2, uv: uv1}	{us: usx, uv: uv2}	v1	s1	s2_v2	target_sx_v2	s2_v1	complex_d	v2	v1	s2	s1	3	2	4	1	target	distractor1	competitor	distractor2	target	target	distractor	competitor	2304	v2	62	filler	{us: us2, uv: uv2}	3	7.74240202181578	2	3	unambiguous	target
25	Male	English	3.00336666666667	s2	{us: us1, uv: uv1}	{us: us1, uv: uvx}	v1	s1	s1_vx	target_sx_v2	s1_v1	unambiguous	s1	v2	s2	v1	3	4	1	2	distractor2	target	competitor	distractor1	target	distractor	target	competitor	1794	v2	63	filler	{us: usx, uv: uv2}	3	7.49220304261874	2	3	unambiguous	target
25	Male	English	3.00336666666667	s2	{us: us2, uv: uvx}	{us: us1, uv: uv1}	v1	s1	target_s2_v2	s2_vx	s1_v1	simple	v1	v2	s2	s1	3	1	4	2	distractor1	target	competitor	distractor2	target	target	competitor	distractor	1359	v2	64	target	{us: us2, uv: uv2}	3	7.21450441415114	2	3	simple	target
25	Male	English	3.00336666666667	s1	{us: us1, uv: uvx}	{us: us2, uv: uv2}	s2	v2	target_s1_v1	s2_v2	s1_vx	simple	v2	v1	s2	s1	4	3	1	2	distractor2	target	distractor1	competitor	competitor	target	distractor	competitor	2200	v1	65	target	{us: us1, uv: uv1}	3	7.69621263934641	2	3	simple	competitor
31	male	English	3.50441666666667	s2	{us: us1, uv: uv2}	{us: us1, uv: uv2}	v2	s1	s1_v2	s1_v2	target_sx_v1	unambiguous	s2	v2	s1	v1	1	2	3	4	competitor	distractor1	distractor2	target	target	competitor	distractor	target	13064	v1	0	filler	{us: usx, uv: uv1}	4	9.4776156346503	1	1	unambiguous	target
31	male	English	3.50441666666667	s2	{us: us2, uv: uv2}	{us: usx, uv: uv1}	v2	s1	s2_v1	s2_v2	target_sx_v1	complex_d	v2	v1	s1	s2	4	1	3	2	distractor1	target	distractor2	competitor	target	target	competitor	distractor	14966	v1	1	filler	{us: us2, uv: uv1}	4	9.6135362406403	1	1	unambiguous	target
31	male	English	3.50441666666667	s1	{us: us2, uv: uv2}	{us: us1, uv: uvx}	s2	v1	s2_v2	target_s1_v2	s1_vx	complex	v1	s1	s2	v2	2	3	1	4	distractor2	competitor	distractor1	target	target	competitor	target	distractor	4960	v2	2	target	{us: us1, uv: uv2}	4	8.50916101971897	1	1	complex	target
31	male	English	3.50441666666667	s1	{us: us2, uv: uvx}	{us: us2, uv: uv1}	s2	v1	s2_vx	s2_v1	target_s1_v2	ambiguous	s2	s1	v1	v2	2	1	3	4	distractor1	competitor	distractor2	target	target	competitor	distractor	target	2312	v2	3	filler	{us: us1, uv: uv2}	4	7.74586822979227	1	1	ambiguous	target
31	male	English	3.50441666666667	v2	{us: usx, uv: uv2}	{us: us2, uv: uv1}	v1	s2	target_s1_v2	sx_v2	s2_v1	simple	v1	s2	s1	v2	4	1	2	3	distractor1	distractor2	target	competitor	competitor	target	competitor	distractor	3415	s1	4	target	{us: us1, uv: uv2}	4	8.13593277200489	1	1	simple	competitor
31	male	English	3.50441666666667	s1	{us: us1, uv: uvx}	{us: us2, uv: uv1}	s2	v1	s1_vx	s2_v1	target_s1_v2	simple	v1	s2	s1	v2	3	2	1	4	distractor2	distractor1	competitor	target	target	competitor	distractor	target	4280	v2	5	target	{us: us1, uv: uv2}	4	8.36170828857584	1	1	simple	target
31	male	English	3.50441666666667	s1	{us: usx, uv: uv1}	{us: us2, uv: uv1}	s2	v1	s2_v1	sx_v1	target_s1_v2	ambiguous	s2	v1	s1	v2	3	1	2	4	distractor1	distractor2	competitor	target	target	distractor	competitor	target	2224	v2	6	filler	{us: us1, uv: uv2}	4	7.70706265537047	1	1	ambiguous	target
31	male	English	3.50441666666667	s2	{us: us2, uv: uv2}	{us: usx, uv: uv1}	v2	s1	s2_v2	target_sx_v1	s2_v1	complex_d	s2	s1	v1	v2	1	4	2	3	competitor	distractor2	target	distractor1	target	competitor	distractor	target	1967	v1	7	filler	{us: us2, uv: uv1}	4	7.58426481838906	1	1	unambiguous	target
31	male	English	3.50441666666667	v1	{us: usx, uv: uv1}	{us: us2, uv: uv2}	s2	v2	target_s1_v1	s2_v2	sx_v1	simple	s2	s1	v2	v1	4	1	3	2	distractor1	target	distractor2	competitor	target	target	distractor	competitor	2200	s1	8	target	{us: us1, uv: uv1}	4	7.69621263934641	1	1	simple	target
31	male	English	3.50441666666667	v1	{us: us2, uv: uvx}	{us: us1, uv: uv2}	v2	s1	s1_v2	target_s2_vx	s2_v1	simple_c	v2	s1	v1	s2	3	1	2	4	distractor1	distractor2	competitor	target	target	distractor	competitor	target	6911	s2	9	filler	{us: us2, uv: uv1}	4	8.8408696240914	1	1	unambiguous	target
31	male	English	3.50441666666667	v1	{us: usx, uv: uv1}	{us: us1, uv: uv2}	s1	v2	target_s2_v1	s1_v2	sx_v1	simple	v2	v1	s1	s2	2	3	1	4	distractor2	competitor	distractor1	target	target	target	distractor	competitor	1936	s2	10	target	{us: us2, uv: uv1}	4	7.56837926783652	1	1	simple	target
31	male	English	3.50441666666667	s2	{us: us1, uv: uv1}	{us: us2, uv: uvx}	s1	v2	s2_vx	s1_v1	target_s2_v1	complex	v2	s1	v1	s2	4	2	1	3	distractor2	distractor1	target	competitor	competitor	distractor	competitor	target	4552	v1	11	target	{us: us2, uv: uv1}	4	8.42332197580617	1	1	complex	competitor
31	male	English	3.50441666666667	s1	{us: us1, uv: uvx}	{us: us2, uv: uv1}	s2	v1	target_s1_v2	s1_vx	s2_v1	simple	s1	v2	v1	s2	1	4	3	2	competitor	target	distractor2	distractor1	target	target	competitor	distractor	2104	v2	12	target	{us: us1, uv: uv2}	4	7.6515955738576	1	1	simple	target
31	male	English	3.50441666666667	v1	{us: us2, uv: uv2}	{us: usx, uv: uv1}	v2	s1	target_s2_v1	s2_v2	sx_v1	complex	v2	v1	s1	s2	2	1	3	4	distractor1	competitor	distractor2	target	competitor	target	competitor	distractor	7297	s2	13	target	{us: us2, uv: uv1}	4	8.89521858376562	1	1	complex	competitor
31	male	English	3.50441666666667	s1	{us: us2, uv: uv2}	{us: us2, uv: uvx}	s2	v2	s2_vx	target_s1_v1	s2_v2	ambiguous	s2	s1	v1	v2	2	1	4	3	distractor1	competitor	target	distractor2	target	distractor	target	competitor	2383	v1	14	filler	{us: us1, uv: uv1}	4	7.77611547709874	1	1	ambiguous	target
31	male	English	3.50441666666667	s2	{us: usx, uv: uv1}	{us: usx, uv: uv1}	s1	v1	sx_v1	sx_v1	target_s2_v2	ambiguous	v2	s2	v1	s1	2	4	3	1	target	competitor	distractor2	distractor1	target	distractor	competitor	target	2062	v2	15	filler	{us: us2, uv: uv2}	4	7.63143166457691	1	1	ambiguous	target
31	male	English	3.50441666666667	v2	{us: usx, uv: uv2}	{us: usx, uv: uv1}	s1	v1	target_s2_vx	sx_v1	sx_v2	unambiguous	s1	s2	v1	v2	4	1	3	2	distractor1	target	distractor2	competitor	target	target	distractor	competitor	3536	s2	16	filler	{us: us2, uv: uvx}	4	8.17075142375753	1	1	unambiguous	target
31	male	English	3.50441666666667	s1	{us: us2, uv: uv1}	{us: us2, uv: uv1}	v1	s2	target_sx_v2	s2_v1	s2_v1	unambiguous	s2	s1	v2	v1	2	4	1	3	distractor2	competitor	target	distractor1	target	target	distractor	competitor	1943	v2	17	filler	{us: usx, uv: uv2}	4	7.57198844937744	1	1	unambiguous	target
31	male	English	3.50441666666667	v1	{us: us1, uv: uv1}	{us: us2, uv: uvx}	s1	v2	target_s2_vx	s1_v1	s2_v1	complex_d	s2	v1	s1	v2	2	3	4	1	target	competitor	distractor1	distractor2	target	distractor	competitor	target	2991	s2	18	filler	{us: us2, uv: uv1}	4	8.00336305862995	1	1	unambiguous	target
31	male	English	3.50441666666667	v1	{us: us1, uv: uv1}	{us: us2, uv: uvx}	s1	v2	s1_v1	s2_v1	target_s2_vx	complex_d	v2	v1	s2	s1	2	4	1	3	distractor2	competitor	target	distractor1	target	competitor	target	distractor	3416	s2	19	filler	{us: us2, uv: uv1}	4	8.13622555490846	1	1	unambiguous	target
31	male	English	3.50441666666667	s2	{us: us2, uv: uvx}	{us: us1, uv: uv1}	v1	s1	s2_vx	s1_v1	target_s2_v2	simple	s1	v1	v2	s2	4	2	1	3	distractor2	distractor1	target	competitor	target	competitor	distractor	target	2104	v2	20	target	{us: us2, uv: uv2}	4	7.6515955738576	1	1	simple	target
31	male	English	3.50441666666667	v1	{us: us2, uv: uv2}	{us: usx, uv: uv1}	v2	s1	s2_v2	target_s2_v1	sx_v1	complex	v1	v2	s1	s2	1	2	3	4	competitor	distractor1	distractor2	target	target	competitor	target	distractor	2696	s2	21	target	{us: us2, uv: uv1}	4	7.8995244720322	1	1	complex	target
31	male	English	3.50441666666667	v1	{us: us1, uv: uvx}	{us: us2, uv: uv1}	v2	s1	s1_v2	s1_vx	target_s2_v1	simple_d	s1	v2	v1	s2	3	2	1	4	distractor2	distractor1	competitor	target	target	target	competitor	distractor	1656	s2	22	filler	{us: us1, uv: uv2}	4	7.4121603349452	1	1	ambiguous	target
31	male	English	3.50441666666667	v1	{us: usx, uv: uv1}	{us: us2, uv: uv2}	v2	s2	sx_v1	s2_v2	target_s1_v1	simple	v2	s1	v1	s2	3	1	4	2	distractor1	target	competitor	distractor2	competitor	competitor	distractor	target	2128	s1	23	target	{us: us1, uv: uv1}	4	7.66293785046154	1	2	simple	competitor
31	male	English	3.50441666666667	v1	{us: us1, uv: uv1}	{us: us2, uv: uvx}	s1	v2	s1_v1	target_s2_vx	s2_v1	complex_d	v2	v1	s1	s2	2	3	1	4	distractor2	competitor	distractor1	target	target	competitor	distractor	target	2591	s2	24	filler	{us: us2, uv: uv1}	4	7.85979918056211	1	2	unambiguous	target
31	male	English	3.50441666666667	v2	{us: us2, uv: uv2}	{us: us1, uv: uvx}	s2	v1	s2_v2	s1_v2	target_s1_vx	complex_d	v1	s1	s2	v2	4	3	1	2	distractor2	target	distractor1	competitor	target	competitor	target	distractor	2415	s1	25	filler	{us: us1, uv: uv2}	4	7.78945456608667	1	2	unambiguous	target
31	male	English	3.50441666666667	s2	{us: us1, uv: uv2}	{us: us2, uv: uvx}	s1	v1	s1_v2	s2_vx	target_s2_v2	complex	v2	s1	s2	v1	3	2	4	1	target	distractor1	competitor	distractor2	target	competitor	distractor	target	3504	v2	26	target	{us: us2, uv: uv2}	4	8.16166045205628	1	2	complex	target
31	male	English	3.50441666666667	v1	{us: us1, uv: uv1}	{us: us2, uv: uvx}	s1	v2	target_s2_vx	s2_v1	s1_v1	complex_d	v1	s1	s2	v2	1	2	4	3	competitor	distractor1	target	distractor2	target	distractor	target	competitor	2160	s2	27	filler	{us: us2, uv: uv1}	4	7.67786350067821	1	2	unambiguous	target
31	male	English	3.50441666666667	s1	{us: us1, uv: uv1}	{us: us1, uv: uv1}	v1	s2	s1_v1	target_sx_v2	s1_v1	unambiguous	v2	s2	s1	v1	3	4	2	1	target	distractor2	competitor	distractor1	target	distractor	target	competitor	1376	v2	28	filler	{us: usx, uv: uv2}	4	7.22693601849329	1	2	unambiguous	target
31	male	English	3.50441666666667	s2	{us: us1, uv: uvx}	{us: us1, uv: uv2}	s1	v2	target_sx_v1	s1_v2	s1_vx	unambiguous	v2	s2	v1	s1	2	4	1	3	distractor2	competitor	target	distractor1	target	target	distractor	competitor	2016	v1	29	filler	{us: usx, uv: uv1}	4	7.60887062919126	1	2	unambiguous	target
31	male	English	3.50441666666667	v1	{us: us1, uv: uv2}	{us: usx, uv: uv1}	v2	s2	target_s1_v1	sx_v1	s1_v2	complex	s2	v2	s1	v1	4	2	1	3	distractor2	distractor1	target	competitor	target	target	distractor	competitor	3256	s1	30	target	{us: us1, uv: uv1}	4	8.08825472712243	1	2	complex	target
31	male	English	3.50441666666667	v2	{us: usx, uv: uv1}	{us: us2, uv: uv2}	s1	v1	s1_v1	target_s2_v2	sx_v1	simple_d	s2	s1	v2	v1	3	2	4	1	target	distractor1	competitor	distractor2	competitor	target	distractor	competitor	1639	s2	31	filler	{us: us1, uv: uv1}	4	7.40184157874383	1	2	ambiguous	competitor
31	male	English	3.50441666666667	s1	{us: usx, uv: uv2}	{us: us2, uv: uv1}	s2	v1	s1_v2	s2_v1	target_sx_v2	simple_c	s2	v1	s1	v2	3	1	2	4	distractor1	distractor2	competitor	target	target	target	distractor	competitor	3800	v2	32	filler	{us: us1, uv: uv2}	4	8.24275634571448	1	2	unambiguous	target
31	male	English	3.50441666666667	s2	{us: us1, uv: uv1}	{us: us2, uv: uvx}	s1	v2	s2_vx	target_s2_v1	s1_v1	complex	v1	s1	s2	v2	3	2	4	1	target	distractor1	competitor	distractor2	competitor	distractor	target	competitor	2688	v1	33	target	{us: us2, uv: uv1}	4	7.89655270164304	1	2	complex	competitor
31	male	English	3.50441666666667	v2	{us: us2, uv: uv1}	{us: us2, uv: uvx}	s2	v1	target_s1_v2	s2_vx	s2_v1	ambiguous	s2	v2	s1	v1	2	1	4	3	distractor1	competitor	target	distractor2	competitor	target	distractor	competitor	1488	s1	34	filler	{us: us1, uv: uv2}	4	7.30518821539304	2	2	ambiguous	competitor
31	male	English	3.50441666666667	s2	{us: us1, uv: uv1}	{us: us2, uv: uvx}	s1	v2	s1_v1	target_s2_v1	s2_vx	complex	v2	v1	s2	s1	3	4	1	2	distractor2	target	competitor	distractor1	competitor	competitor	target	distractor	3760	v1	35	target	{us: us2, uv: uv1}	4	8.23217423638394	2	2	complex	competitor
31	male	English	3.50441666666667	s2	{us: us1, uv: uv2}	{us: us1, uv: uv2}	s1	v2	target_s2_v1	s1_v2	s1_v2	ambiguous	v1	s1	s2	v2	3	2	4	1	target	distractor1	competitor	distractor2	target	target	distractor	competitor	2625	v1	36	filler	{us: us2, uv: uv1}	4	7.87283617502572	2	2	ambiguous	target
31	male	English	3.50441666666667	s2	{us: us2, uv: uvx}	{us: us1, uv: uv1}	v1	s1	target_s2_v2	s2_vx	s1_v1	simple	s2	v2	v1	s1	1	3	4	2	competitor	target	distractor1	distractor2	target	target	competitor	distractor	2038	v2	37	target	{us: us2, uv: uv2}	4	7.61972421378267	2	2	simple	target
31	male	English	3.50441666666667	v1	{us: us1, uv: uvx}	{us: us2, uv: uv1}	s2	s1	s1_vx	target_sx_v2	s2_v1	unambiguous	s2	v1	v2	s1	2	1	4	3	distractor1	competitor	target	distractor2	target	competitor	target	distractor	1495	v2	38	filler	{us: usx, uv: uv2}	4	7.30988148582479	2	2	unambiguous	target
31	male	English	3.50441666666667	v1	{us: us2, uv: uv2}	{us: us2, uv: uv2}	s2	v2	s2_v2	target_s1_v1	s2_v2	ambiguous	v2	s1	v1	s2	3	4	1	2	distractor2	target	competitor	distractor1	competitor	competitor	target	distractor	1432	s1	39	filler	{us: us1, uv: uv1}	4	7.26682734752059	2	2	ambiguous	competitor
31	male	English	3.50441666666667	s2	{us: us2, uv: uvx}	{us: us1, uv: uv1}	s1	v1	s1_v1	s2_vx	target_s2_v2	simple	s2	s1	v1	v2	1	2	3	4	competitor	distractor1	distractor2	target	target	distractor	competitor	target	1407	v2	40	target	{us: us2, uv: uv2}	4	7.24921505711439	2	2	simple	target
31	male	English	3.50441666666667	v2	{us: usx, uv: uv2}	{us: us2, uv: uv1}	s2	v1	target_s1_v2	s2_v1	sx_v2	simple	s2	v1	s1	v2	4	1	2	3	distractor1	distractor2	target	competitor	target	target	distractor	competitor	1952	s1	41	target	{us: us1, uv: uv2}	4	7.57660976697304	2	2	simple	target
31	male	English	3.50441666666667	v2	{us: us1, uv: uv2}	{us: us2, uv: uvx}	s1	v1	s1_v2	target_s2_vx	s2_v2	complex_d	v2	s1	s2	v1	1	2	4	3	competitor	distractor1	target	distractor2	target	competitor	distractor	target	1960	s2	42	filler	{us: us2, uv: uv2}	4	7.58069975222456	2	2	unambiguous	target
31	male	English	3.50441666666667	v1	{us: us1, uv: uv1}	{us: us2, uv: uvx}	s1	v2	target_s2_vx	s1_v1	s2_v1	complex_d	v2	s1	v1	s2	3	2	1	4	distractor2	distractor1	competitor	target	target	distractor	competitor	target	2264	s2	43	filler	{us: us2, uv: uv1}	4	7.72488843932307	2	2	unambiguous	target
31	male	English	3.50441666666667	s1	{us: usx, uv: uv2}	{us: us2, uv: uv1}	v1	s2	s1_v2	target_sx_v2	s2_v1	simple_c	v1	s2	s1	v2	3	1	2	4	distractor1	distractor2	competitor	target	target	target	competitor	distractor	1552	v2	44	filler	{us: us1, uv: uv2}	4	7.34729970074316	2	2	unambiguous	target
31	male	English	3.50441666666667	v2	{us: us2, uv: uv2}	{us: us1, uv: uvx}	s2	v1	s1_v2	target_s1_vx	s2_v2	complex_d	s2	s1	v1	v2	4	1	3	2	distractor1	target	distractor2	competitor	target	target	distractor	competitor	1823	s1	45	filler	{us: us1, uv: uv2}	4	7.50823877467866	2	3	unambiguous	target
31	male	English	3.50441666666667	v2	{us: usx, uv: uv1}	{us: us1, uv: uv2}	s2	v1	s2_v1	target_s1_v2	sx_v1	simple_d	v2	v1	s1	s2	1	4	2	3	competitor	distractor2	target	distractor1	competitor	target	distractor	competitor	1447	s1	46	filler	{us: us2, uv: uv1}	4	7.27724772663148	2	3	ambiguous	competitor
31	male	English	3.50441666666667	v1	{us: us1, uv: uvx}	{us: us2, uv: uv2}	s2	v2	s1_v1	s2_v2	target_s1_vx	simple_c	v1	s2	s1	v2	1	2	4	3	competitor	distractor1	target	distractor2	target	target	distractor	competitor	1799	s1	47	filler	{us: us1, uv: uv1}	4	7.49498623395053	2	3	unambiguous	target
31	male	English	3.50441666666667	s1	{us: us1, uv: uv2}	{us: usx, uv: uv1}	v2	s2	s1_v1	target_sx_v1	s1_v2	complex_d	s2	v2	s1	v1	3	2	1	4	distractor2	distractor1	competitor	target	target	target	distractor	competitor	4112	v1	48	filler	{us: us1, uv: uv1}	4	8.321664807135	2	3	unambiguous	target
31	male	English	3.50441666666667	s2	{us: us1, uv: uv1}	{us: us2, uv: uvx}	s1	v2	s1_v1	s2_vx	target_s2_v1	complex	v2	v1	s1	s2	4	3	1	2	distractor2	target	distractor1	competitor	competitor	competitor	distractor	target	2328	v1	49	target	{us: us2, uv: uv1}	4	7.75276480885133	2	3	complex	competitor
31	male	English	3.50441666666667	s1	{us: us1, uv: uvx}	{us: us2, uv: uv2}	s2	v2	target_s1_v1	s2_v2	s1_vx	simple	v1	s2	s1	v2	3	2	4	1	target	distractor1	competitor	distractor2	target	target	distractor	competitor	2424	v1	50	target	{us: us1, uv: uv1}	4	7.7931743471892	2	3	simple	target
31	male	English	3.50441666666667	s1	{us: us2, uv: uvx}	{us: us1, uv: uv1}	v2	s2	s2_v2	s2_vx	target_s1_v1	simple_d	s2	v2	v1	s1	4	2	1	3	distractor2	distractor1	target	competitor	target	target	competitor	distractor	2184	v1	51	filler	{us: us2, uv: uv2}	4	7.6889133368648	2	3	ambiguous	target
31	male	English	3.50441666666667	s2	{us: us2, uv: uvx}	{us: us1, uv: uv2}	v2	s1	s1_v2	s2_vx	target_s2_v1	simple	v2	s1	v1	s2	4	1	2	3	distractor1	distractor2	target	competitor	competitor	distractor	competitor	target	2280	v1	52	target	{us: us2, uv: uv1}	4	7.73193072194849	2	3	simple	competitor
31	male	English	3.50441666666667	v2	{us: us1, uv: uv1}	{us: us1, uv: uv1}	v1	s1	target_s2_vx	s1_v1	s1_v1	unambiguous	v2	v1	s1	s2	1	2	3	4	competitor	distractor1	distractor2	target	target	target	distractor	competitor	2031	s2	53	filler	{us: us2, uv: uvx}	4	7.61628356158038	2	3	unambiguous	target
31	male	English	3.50441666666667	v2	{us: us1, uv: uv2}	{us: us2, uv: uv2}	s2	s1	s1_v2	target_sx_v1	s2_v2	unambiguous	v2	s1	v1	s2	1	4	2	3	competitor	distractor2	target	distractor1	target	competitor	target	distractor	1360	v1	54	filler	{us: usx, uv: uv1}	4	7.2152399787301	2	3	unambiguous	target
31	male	English	3.50441666666667	v2	{us: us1, uv: uvx}	{us: us2, uv: uv1}	s2	v1	target_s1_vx	s2_v1	s1_v2	simple_c	v1	s2	s1	v2	4	2	1	3	distractor2	distractor1	target	competitor	target	competitor	distractor	target	2072	s1	55	filler	{us: us1, uv: uv2}	4	7.63626960337937	2	3	unambiguous	target
31	male	English	3.50441666666667	s1	{us: usx, uv: uv1}	{us: us1, uv: uv2}	v2	v1	target_s2_vx	s1_v2	sx_v1	unambiguous	v2	v1	s2	s1	4	1	2	3	distractor1	distractor2	target	competitor	target	target	distractor	competitor	2488	s2	56	filler	{us: us2, uv: uvx}	4	7.81923445385907	2	3	unambiguous	target
31	male	English	3.50441666666667	s2	{us: us1, uv: uv1}	{us: us2, uv: uvx}	s1	v2	s2_vx	s1_v1	target_s2_v1	complex	s2	v1	s1	v2	1	3	4	2	competitor	target	distractor1	distractor2	target	distractor	competitor	target	2904	v1	57	target	{us: us2, uv: uv1}	4	7.97384437594469	2	3	complex	target
31	male	English	3.50441666666667	s2	{us: us2, uv: uv2}	{us: usx, uv: uv1}	v2	s1	s2_v2	s2_v1	target_sx_v1	complex_d	v1	v2	s1	s2	4	2	3	1	target	distractor1	distractor2	competitor	target	competitor	target	distractor	4920	v1	58	filler	{us: us2, uv: uv1}	4	8.50106380948635	2	3	unambiguous	target
31	male	English	3.50441666666667	v1	{us: us2, uv: uv2}	{us: usx, uv: uv1}	v2	s1	s2_v2	sx_v1	target_s2_v1	complex	s2	s1	v1	v2	3	4	2	1	target	distractor2	competitor	distractor1	target	competitor	distractor	target	1671	s2	59	target	{us: us2, uv: uv1}	4	7.42117752859539	2	3	complex	target
31	male	English	3.50441666666667	v2	{us: us2, uv: uvx}	{us: us1, uv: uv1}	s1	v1	s1_v1	target_s2_vx	s2_v2	simple_c	s2	s1	v1	v2	4	2	3	1	target	distractor1	distractor2	competitor	target	distractor	competitor	target	1880	s2	60	filler	{us: us2, uv: uv2}	4	7.539027055824	2	3	unambiguous	target
31	male	English	3.50441666666667	s1	{us: us2, uv: uv2}	{us: us1, uv: uvx}	s2	v1	target_s1_v2	s1_vx	s2_v2	complex	s2	s1	v1	v2	2	1	3	4	distractor1	competitor	distractor2	target	competitor	target	distractor	competitor	3512	v2	61	target	{us: us1, uv: uv2}	4	8.16394095475501	2	3	complex	competitor
31	male	English	3.50441666666667	v1	{us: us2, uv: uv2}	{us: us2, uv: uvx}	s2	v2	s2_v2	target_s1_v1	s2_vx	ambiguous	v1	v2	s1	s2	1	4	2	3	competitor	distractor2	target	distractor1	target	competitor	target	distractor	1960	s1	62	filler	{us: us1, uv: uv1}	4	7.58069975222456	2	3	ambiguous	target
31	male	English	3.50441666666667	v2	{us: us1, uv: uvx}	{us: usx, uv: uv1}	s1	v1	sx_v1	target_s2_v2	s1_vx	ambiguous	s2	s1	v1	v2	4	2	3	1	target	distractor1	distractor2	competitor	competitor	distractor	target	competitor	2681	s2	63	filler	{us: us2, uv: uv2}	4	7.89394513823596	2	3	ambiguous	competitor
31	male	English	3.50441666666667	s1	{us: us2, uv: uvx}	{us: us1, uv: uv1}	v2	s2	s2_vx	target_s1_v1	s2_v2	simple_d	s1	v1	v2	s2	1	3	4	2	competitor	target	distractor1	distractor2	target	competitor	distractor	target	2159	v1	64	filler	{us: us2, uv: uv2}	4	7.67740043051481	2	3	ambiguous	target
31	male	English	3.50441666666667	s2	{us: usx, uv: uv1}	{us: us2, uv: uv2}	s1	v1	sx_v1	target_s2_v2	s1_v1	simple_d	v2	s1	v1	s2	4	2	3	1	target	distractor1	distractor2	competitor	target	competitor	distractor	target	1835	v2	65	filler	{us: us1, uv: uv1}	4	7.51479976048867	2	3	ambiguous	target
37	male	English	4.33461666666667	v2	{us: usx, uv: uv2}	{us: us2, uv: uv1}	s2	v1	sx_v2	target_s1_v2	s2_v1	simple	s1	v1	s2	v2	4	3	2	1	target	distractor2	distractor1	competitor	target	competitor	target	distractor	36784	s1	0	target	{us: us1, uv: uv2}	5	10.512818247003	1	1	simple	target
37	male	English	4.33461666666667	v2	{us: usx, uv: uv2}	{us: us2, uv: uv1}	v1	s2	target_s1_v2	s2_v1	sx_v2	simple	s2	v1	v2	s1	3	2	1	4	distractor2	distractor1	competitor	target	distractor1	target	distractor	competitor	3213	s1	1	target	{us: us1, uv: uv2}	5	8.07496035911586	1	1	simple	distractor
37	male	English	4.33461666666667	s2	{us: us1, uv: uv2}	{us: us2, uv: uvx}	s1	v1	s1_v2	target_s2_v2	s2_vx	complex	v2	s2	s1	v1	2	3	4	1	target	competitor	distractor1	distractor2	target	competitor	target	distractor	12328	v2	2	target	{us: us2, uv: uv2}	5	9.41962837699995	1	1	complex	target
37	male	English	4.33461666666667	v2	{us: us1, uv: uvx}	{us: us2, uv: uv1}	v1	s2	s2_v1	target_s1_vx	s1_v2	simple_c	v1	s1	s2	v2	4	1	3	2	distractor1	target	distractor2	competitor	target	distractor	competitor	target	1728	s1	3	filler	{us: us1, uv: uv2}	5	7.454719949364	1	1	unambiguous	target
37	male	English	4.33461666666667	s1	{us: usx, uv: uv2}	{us: us2, uv: uv1}	v1	s2	s1_v2	s2_v1	target_sx_v2	simple_c	s2	v1	v2	s1	4	2	1	3	distractor2	distractor1	target	competitor	target	target	distractor	competitor	2509	v2	4	filler	{us: us1, uv: uv2}	5	7.82763954636642	1	1	unambiguous	target
37	male	English	4.33461666666667	v1	{us: us1, uv: uv2}	{us: usx, uv: uv1}	v2	s2	target_s1_v1	sx_v1	s1_v2	complex	v1	v2	s1	s2	1	2	4	3	competitor	distractor1	target	distractor2	target	target	distractor	competitor	2040	s1	5	target	{us: us1, uv: uv1}	5	7.62070508683826	1	1	complex	target
37	male	English	4.33461666666667	v1	{us: us2, uv: uv2}	{us: usx, uv: uv1}	v2	s1	target_s2_v1	sx_v1	s2_v2	complex	v1	s1	v2	s2	1	3	2	4	competitor	distractor2	distractor1	target	distractor1	target	distractor	competitor	1347	s2	6	target	{us: us2, uv: uv1}	5	7.20563517641036	1	1	complex	distractor
37	male	English	4.33461666666667	v2	{us: us1, uv: uvx}	{us: us2, uv: uv2}	v1	s1	s1_vx	s1_v1	target_s2_v2	simple_d	s1	v2	v1	s2	2	3	1	4	distractor2	competitor	distractor1	target	distractor1	competitor	target	distractor	1224	s2	7	filler	{us: us1, uv: uv1}	5	7.10987946307227	1	1	ambiguous	distractor
37	male	English	4.33461666666667	s2	{us: us2, uv: uv1}	{us: us1, uv: uvx}	v1	s1	s1_vx	s2_v1	target_sx_v2	unambiguous	v1	v2	s2	s1	3	1	4	2	distractor1	target	competitor	distractor2	competitor	distractor	competitor	target	1076	v2	8	filler	{us: usx, uv: uv2}	5	6.98100574072173	1	1	unambiguous	competitor
37	male	English	4.33461666666667	s1	{us: usx, uv: uv1}	{us: us2, uv: uv2}	v2	s2	s1_v1	s2_v2	target_sx_v1	simple_c	s1	v2	v1	s2	1	2	4	3	competitor	distractor1	target	distractor2	target	target	distractor	competitor	704	v1	9	filler	{us: us1, uv: uv1}	5	6.55677835615804	1	1	unambiguous	target
37	male	English	4.33461666666667	v1	{us: us2, uv: uvx}	{us: usx, uv: uv2}	s2	v2	target_s1_v1	sx_v2	s2_vx	ambiguous	s2	v1	s1	v2	2	1	4	3	distractor1	competitor	target	distractor2	target	target	distractor	competitor	559	s1	10	filler	{us: us1, uv: uv1}	5	6.3261494731551	1	1	ambiguous	target
37	male	English	4.33461666666667	s2	{us: us2, uv: uv2}	{us: usx, uv: uv1}	v2	s1	target_sx_v1	s2_v2	s2_v1	complex_d	s2	s1	v2	v1	1	3	2	4	competitor	distractor2	distractor1	target	distractor1	distractor	competitor	target	469	v1	11	filler	{us: us2, uv: uv1}	5	6.15060276844628	1	1	unambiguous	distractor
37	male	English	4.33461666666667	s1	{us: us2, uv: uvx}	{us: us1, uv: uv1}	v2	s2	target_s1_v1	s2_v2	s2_vx	simple_d	v1	s2	v2	s1	4	3	2	1	target	distractor2	distractor1	competitor	distractor1	distractor	target	competitor	494	v1	12	filler	{us: us2, uv: uv2}	5	6.20253551718792	1	1	ambiguous	distractor
37	male	English	4.33461666666667	s2	{us: us1, uv: uv1}	{us: us2, uv: uvx}	s1	v2	target_s2_v1	s2_vx	s1_v1	complex	v2	s1	s2	v1	3	2	1	4	distractor2	distractor1	competitor	target	competitor	target	distractor	competitor	457	v1	13	target	{us: us2, uv: uv1}	5	6.12468339089421	1	1	complex	competitor
37	male	English	4.33461666666667	s1	{us: us2, uv: uv2}	{us: us1, uv: uv2}	s2	v2	s2_v2	s1_v2	target_sx_v1	unambiguous	s2	s1	v2	v1	2	1	3	4	distractor1	competitor	distractor2	target	target	competitor	distractor	target	1768	v1	14	filler	{us: usx, uv: uv1}	5	7.47760424319759	1	1	unambiguous	target
37	male	English	4.33461666666667	s1	{us: us2, uv: uv2}	{us: usx, uv: uv2}	s2	v2	s2_v2	target_s1_v1	sx_v2	ambiguous	s1	s2	v1	v2	1	2	4	3	competitor	distractor1	target	distractor2	target	competitor	target	distractor	1470	v1	15	filler	{us: us1, uv: uv1}	5	7.29301767977278	1	1	ambiguous	target
37	male	English	4.33461666666667	s2	{us: us2, uv: uv1}	{us: usx, uv: uv2}	v1	s1	target_sx_v2	s2_v2	s2_v1	complex_d	v2	s1	s2	v1	3	4	2	1	target	distractor2	competitor	distractor1	target	distractor	target	competitor	1362	v2	16	filler	{us: us2, uv: uv2}	5	7.21670948670946	1	1	unambiguous	target
37	male	English	4.33461666666667	v1	{us: usx, uv: uv1}	{us: us1, uv: uv2}	v2	s1	sx_v1	s1_v2	target_s2_v1	simple	s1	v2	s2	v1	4	2	1	3	distractor2	distractor1	target	competitor	competitor	competitor	distractor	target	1284	s2	17	target	{us: us2, uv: uv1}	5	7.15773548424991	1	1	simple	competitor
37	male	English	4.33461666666667	s1	{us: us2, uv: uv1}	{us: us1, uv: uvx}	s2	v2	s1_vx	s2_v1	target_s1_v1	complex	s1	v1	s2	v2	1	3	4	2	competitor	target	distractor1	distractor2	target	distractor	competitor	target	1559	v1	18	target	{us: us1, uv: uv1}	5	7.35179986905778	1	1	complex	target
37	male	English	4.33461666666667	s2	{us: us1, uv: uv1}	{us: us1, uv: uvx}	s1	v1	s1_vx	s1_v1	target_s2_v2	ambiguous	s2	s1	v1	v2	1	2	3	4	competitor	distractor1	distractor2	target	target	distractor	competitor	target	1372	v2	19	filler	{us: us2, uv: uv2}	5	7.22402480828583	1	1	ambiguous	target
37	male	English	4.33461666666667	s2	{us: usx, uv: uv1}	{us: us1, uv: uv2}	v2	s1	target_sx_v1	s1_v2	s2_v1	simple_c	v2	s1	s2	v1	3	1	2	4	distractor1	distractor2	competitor	target	target	competitor	distractor	target	1571	v1	20	filler	{us: us2, uv: uv1}	5	7.35946763825562	1	1	unambiguous	target
37	male	English	4.33461666666667	v1	{us: usx, uv: uv2}	{us: us2, uv: uv1}	s1	v2	sx_v2	s1_v2	target_s2_v1	simple_d	s1	v1	s2	v2	2	1	4	3	distractor1	competitor	target	distractor2	competitor	competitor	target	distractor	1754	s2	21	filler	{us: us1, uv: uv2}	5	7.46965417293213	1	1	ambiguous	competitor
37	male	English	4.33461666666667	v2	{us: usx, uv: uv2}	{us: us1, uv: uv1}	s1	v1	s1_v1	sx_v2	target_s2_v2	simple	s2	v2	v1	s1	2	4	3	1	target	competitor	distractor2	distractor1	target	distractor	competitor	target	2672	s2	22	target	{us: us2, uv: uv2}	5	7.89058253465654	1	1	simple	target
37	male	English	4.33461666666667	v1	{us: usx, uv: uv1}	{us: us2, uv: uv2}	v2	s2	target_s1_v1	s2_v2	sx_v1	simple	s1	v2	v1	s2	3	2	4	1	target	distractor1	competitor	distractor2	target	target	distractor	competitor	2126	s1	23	target	{us: us1, uv: uv1}	5	7.66199755890189	1	2	simple	target
37	male	English	4.33461666666667	v2	{us: usx, uv: uv1}	{us: us2, uv: uv2}	s2	v1	s2_v2	sx_v1	target_s1_vx	unambiguous	v2	v1	s1	s2	1	4	2	3	competitor	distractor2	target	distractor1	target	distractor	competitor	target	1705	s1	24	filler	{us: us1, uv: uvx}	5	7.44132038971762	1	2	unambiguous	target
37	male	English	4.33461666666667	s2	{us: us2, uv: uvx}	{us: us1, uv: uv1}	v1	s1	s2_vx	s1_v1	target_s2_v2	simple	s1	v1	v2	s2	4	2	1	3	distractor2	distractor1	target	competitor	target	competitor	distractor	target	4316	v2	25	target	{us: us2, uv: uv2}	5	8.37008432637803	1	2	simple	target
37	male	English	4.33461666666667	v1	{us: us1, uv: uv1}	{us: us2, uv: uvx}	s1	v2	s2_v1	target_s2_vx	s1_v1	complex_d	v2	v1	s2	s1	2	4	1	3	distractor2	competitor	target	distractor1	target	target	distractor	competitor	5352	s2	26	filler	{us: us2, uv: uv1}	5	8.58522560180806	1	2	unambiguous	target
37	male	English	4.33461666666667	s1	{us: us2, uv: uvx}	{us: us1, uv: uv1}	v2	s2	s2_vx	target_s1_v1	s2_v2	simple_d	s1	v1	v2	s2	1	3	4	2	competitor	target	distractor1	distractor2	target	competitor	distractor	target	2399	v1	27	filler	{us: us2, uv: uv2}	5	7.78280726283969	1	2	ambiguous	target
37	male	English	4.33461666666667	s1	{us: us2, uv: uv2}	{us: us1, uv: uvx}	s2	v1	s2_v2	s1_vx	target_s1_v2	complex	v1	s2	s1	v2	3	2	1	4	distractor2	distractor1	competitor	target	target	competitor	distractor	target	3549	v2	28	target	{us: us1, uv: uv2}	5	8.1744211526465	1	2	complex	target
37	male	English	4.33461666666667	v1	{us: usx, uv: uv1}	{us: us2, uv: uv2}	s2	v2	s2_v2	sx_v1	target_s1_v1	simple	s1	v1	s2	v2	2	3	4	1	target	competitor	distractor1	distractor2	competitor	distractor	competitor	target	1581	s1	29	target	{us: us1, uv: uv1}	5	7.36581283720947	1	2	simple	competitor
37	male	English	4.33461666666667	v1	{us: us2, uv: uv2}	{us: usx, uv: uv1}	v2	s1	s2_v2	target_s2_v1	sx_v1	complex	v2	s1	v1	s2	3	1	2	4	distractor1	distractor2	competitor	target	target	competitor	target	distractor	1830	s2	30	target	{us: us2, uv: uv1}	5	7.51207124583547	1	2	complex	target
37	male	English	4.33461666666667	v2	{us: us1, uv: uv2}	{us: us2, uv: uvx}	s1	v1	s1_v2	s2_v2	target_s2_vx	complex_d	v2	s2	s1	v1	1	3	4	2	competitor	target	distractor1	distractor2	target	competitor	target	distractor	1817	s2	31	filler	{us: us2, uv: uv2}	5	7.50494206839617	1	2	unambiguous	target
37	male	English	4.33461666666667	s1	{us: us1, uv: uvx}	{us: us2, uv: uv1}	v1	s2	s2_v1	s1_vx	target_s1_v2	simple	v1	s1	s2	v2	2	1	3	4	distractor1	competitor	distractor2	target	target	distractor	competitor	target	1695	v2	32	target	{us: us1, uv: uv2}	5	7.43543801981455	1	2	simple	target
37	male	English	4.33461666666667	s2	{us: us2, uv: uvx}	{us: us1, uv: uvx}	s1	v2	target_sx_v1	s2_vx	s1_vx	unambiguous	s1	s2	v2	v1	2	1	3	4	distractor1	competitor	distractor2	target	target	target	competitor	distractor	3634	v1	33	filler	{us: usx, uv: uv1}	5	8.19808924895612	1	2	unambiguous	target
37	male	English	4.33461666666667	s2	{us: us2, uv: uv2}	{us: usx, uv: uv1}	v2	s1	s2_v1	target_sx_v1	s2_v2	complex_d	v1	s1	v2	s2	4	3	2	1	target	distractor2	distractor1	competitor	competitor	target	distractor	competitor	124	v1	34	filler	{us: us2, uv: uv1}	5	4.82028156560504	2	2	unambiguous	competitor
37	male	English	4.33461666666667	v2	{us: us1, uv: uv1}	{us: us1, uv: uv1}	s1	v1	target_s2_v2	s1_v1	s1_v1	ambiguous	v2	s2	s1	v1	1	3	4	2	competitor	target	distractor1	distractor2	competitor	target	competitor	distractor	1434	s2	35	filler	{us: us2, uv: uv2}	5	7.26822302115957	2	2	ambiguous	competitor
37	male	English	4.33461666666667	v2	{us: us2, uv: uv1}	{us: usx, uv: uv2}	v1	s1	target_s2_v2	sx_v2	s2_v1	complex	v1	s2	s1	v2	4	1	3	2	distractor1	target	distractor2	competitor	competitor	target	distractor	competitor	1843	s2	36	target	{us: us2, uv: uv2}	5	7.51914995766982	2	2	complex	competitor
37	male	English	4.33461666666667	s1	{us: us1, uv: uvx}	{us: us2, uv: uv2}	s2	v2	s1_vx	target_s1_v1	s2_v2	simple	s1	v2	v1	s2	1	4	2	3	competitor	distractor2	target	distractor1	target	competitor	target	distractor	1965	v1	37	target	{us: us1, uv: uv1}	5	7.58324752430336	2	2	simple	target
37	male	English	4.33461666666667	v2	{us: us2, uv: uv2}	{us: us1, uv: uvx}	s2	v1	s2_v2	target_s1_vx	s1_v2	complex_d	v1	s2	s1	v2	4	2	1	3	distractor2	distractor1	target	competitor	target	competitor	distractor	target	1795	s1	38	filler	{us: us1, uv: uv2}	5	7.49276030092238	2	2	unambiguous	target
37	male	English	4.33461666666667	s1	{us: us2, uv: uv2}	{us: us2, uv: uvx}	v2	s2	target_sx_v1	s2_v2	s2_vx	unambiguous	v2	s1	s2	v1	2	1	3	4	distractor1	competitor	distractor2	target	target	target	competitor	distractor	2904	v1	39	filler	{us: usx, uv: uv1}	5	7.97384437594469	2	2	unambiguous	target
37	male	English	4.33461666666667	s1	{us: usx, uv: uv1}	{us: us2, uv: uv2}	s2	v2	s2_v2	target_sx_v1	s1_v1	simple_c	s1	v1	s2	v2	1	3	4	2	competitor	target	distractor1	distractor2	target	distractor	competitor	target	3783	v1	40	filler	{us: us1, uv: uv1}	5	8.23827262463303	2	2	unambiguous	target
37	male	English	4.33461666666667	v2	{us: us2, uv: uv1}	{us: us2, uv: uvx}	s2	v1	target_s1_v2	s2_v1	s2_vx	ambiguous	s2	v1	v2	s1	3	1	2	4	distractor1	distractor2	competitor	target	competitor	target	competitor	distractor	2053	s1	41	filler	{us: us1, uv: uv2}	5	7.62705741701893	2	2	ambiguous	competitor
37	male	English	4.33461666666667	v1	{us: us2, uv: uv2}	{us: usx, uv: uv1}	v2	s1	sx_v1	s2_v2	target_s2_v1	complex	s2	s1	v2	v1	4	3	2	1	target	distractor2	distractor1	competitor	competitor	distractor	competitor	target	1349	s2	42	target	{us: us2, uv: uv1}	5	7.20711885620776	2	2	complex	competitor
37	male	English	4.33461666666667	v1	{us: us1, uv: uv1}	{us: us2, uv: uvx}	s1	v2	s2_v1	target_s2_vx	s1_v1	complex_d	v2	s1	s2	v1	4	2	1	3	distractor2	distractor1	target	competitor	target	target	distractor	competitor	1792	s2	43	filler	{us: us2, uv: uv1}	5	7.49108759353488	2	2	unambiguous	target
37	male	English	4.33461666666667	s2	{us: us1, uv: uvx}	{us: us2, uv: uvx}	v2	s1	target_sx_v1	s2_vx	s1_vx	unambiguous	v2	s1	s2	v1	3	1	2	4	distractor1	distractor2	competitor	target	target	target	distractor	competitor	2213	v1	44	filler	{us: usx, uv: uv1}	5	7.70210434005105	2	2	unambiguous	target
37	male	English	4.33461666666667	s1	{us: us2, uv: uvx}	{us: us2, uv: uvx}	s2	v2	s2_vx	target_s1_v1	s2_vx	ambiguous	s2	v2	v1	s1	4	1	2	3	distractor1	distractor2	target	competitor	competitor	distractor	target	competitor	1396	v1	45	filler	{us: us1, uv: uv1}	5	7.24136628332232	2	3	ambiguous	competitor
37	male	English	4.33461666666667	v2	{us: us1, uv: uv1}	{us: us1, uv: uv1}	s1	v1	s1_v1	s1_v1	target_s2_v2	ambiguous	s1	v2	s2	v1	2	1	4	3	distractor1	competitor	target	distractor2	target	competitor	distractor	target	1906	s2	46	filler	{us: us2, uv: uv2}	5	7.55276208421415	2	3	ambiguous	target
37	male	English	4.33461666666667	s2	{us: us1, uv: uvx}	{us: us1, uv: uv2}	s1	v2	target_s2_v1	s1_v2	s1_vx	ambiguous	s1	v2	v1	s2	4	1	2	3	distractor1	distractor2	target	competitor	competitor	target	distractor	competitor	2025	v1	47	filler	{us: us2, uv: uv1}	5	7.61332497954064	2	3	ambiguous	competitor
37	male	English	4.33461666666667	v2	{us: usx, uv: uv2}	{us: us1, uv: uv1}	s1	v1	s1_v1	sx_v2	target_s2_v2	simple	s1	v1	s2	v2	4	1	2	3	distractor1	distractor2	target	competitor	target	distractor	competitor	target	3525	s2	48	target	{us: us2, uv: uv2}	5	8.16763571524637	2	3	simple	target
37	male	English	4.33461666666667	s2	{us: us2, uv: uv2}	{us: usx, uv: uv1}	v2	s1	s2_v2	s2_v1	target_sx_v1	complex_d	v2	s1	v1	s2	4	1	2	3	distractor1	distractor2	target	competitor	target	competitor	target	distractor	2966	v1	49	filler	{us: us2, uv: uv1}	5	7.99496952269788	2	3	unambiguous	target
37	male	English	4.33461666666667	s2	{us: us2, uv: uvx}	{us: us1, uv: uv1}	v1	s1	s1_v1	target_s2_v2	s2_vx	simple	v1	s2	v2	s1	2	1	4	3	distractor1	competitor	target	distractor2	target	distractor	target	competitor	2115	v2	50	target	{us: us2, uv: uv2}	5	7.65681009148038	2	3	simple	target
37	male	English	4.33461666666667	v1	{us: us2, uv: uv1}	{us: us1, uv: uvx}	s2	v2	target_s1_vx	s2_v1	s1_v1	complex_d	s1	v1	s2	v2	2	3	4	1	target	competitor	distractor1	distractor2	target	distractor	competitor	target	2250	s1	51	filler	{us: us1, uv: uv1}	5	7.71868549519847	2	3	unambiguous	target
37	male	English	4.33461666666667	s1	{us: us1, uv: uv2}	{us: usx, uv: uv1}	v2	s2	s1_v1	target_sx_v1	s1_v2	complex_d	v1	v2	s1	s2	3	2	4	1	target	distractor1	competitor	distractor2	target	target	distractor	competitor	2336	v1	52	filler	{us: us1, uv: uv1}	5	7.75619534394812	2	3	unambiguous	target
37	male	English	4.33461666666667	s2	{us: us1, uv: uv1}	{us: us2, uv: uvx}	s1	v2	target_s2_v1	s2_vx	s1_v1	complex	v2	v1	s2	s1	3	4	1	2	distractor2	target	competitor	distractor1	target	target	distractor	competitor	1399	v1	53	target	{us: us2, uv: uv1}	5	7.24351297466548	2	3	complex	target
37	male	English	4.33461666666667	s1	{us: us2, uv: uv2}	{us: us2, uv: uv2}	s2	v2	s2_v2	s2_v2	target_sx_v1	unambiguous	v2	s2	s1	v1	3	2	1	4	distractor2	distractor1	competitor	target	target	distractor	competitor	target	1384	v1	54	filler	{us: usx, uv: uv1}	5	7.23273313617761	2	3	unambiguous	target
37	male	English	4.33461666666667	s1	{us: us2, uv: uv1}	{us: us1, uv: uvx}	s2	v2	s1_vx	target_s1_v1	s2_v1	complex	v1	s2	v2	s1	4	2	3	1	target	distractor1	distractor2	competitor	target	distractor	target	competitor	1821	v1	55	target	{us: us1, uv: uv1}	5	7.50714107972761	2	3	complex	target
37	male	English	4.33461666666667	s2	{us: us2, uv: uv1}	{us: usx, uv: uv2}	v1	s1	s2_v2	target_sx_v2	s2_v1	complex_d	v1	s2	s1	v2	2	1	3	4	distractor1	competitor	distractor2	target	target	target	distractor	competitor	2443	v2	56	filler	{us: us2, uv: uv2}	5	7.80098207125774	2	3	unambiguous	target
37	male	English	4.33461666666667	v1	{us: usx, uv: uv2}	{us: us1, uv: uv1}	s2	v2	target_s1_v1	sx_v2	s2_v2	simple_d	s2	v2	v1	s1	3	1	2	4	distractor1	distractor2	competitor	target	competitor	distractor	competitor	target	2017	s1	57	filler	{us: us2, uv: uv2}	5	7.60936653795421	2	3	ambiguous	competitor
37	male	English	4.33461666666667	s2	{us: usx, uv: uv1}	{us: us1, uv: uv2}	v2	s1	target_sx_v1	s1_v2	s2_v1	simple_c	s1	v2	s2	v1	3	2	1	4	distractor2	distractor1	competitor	target	target	competitor	distractor	target	1447	v1	58	filler	{us: us2, uv: uv1}	5	7.27724772663148	2	3	unambiguous	target
37	male	English	4.33461666666667	s2	{us: us2, uv: uv2}	{us: us2, uv: uv2}	s1	v2	target_sx_v1	s2_v2	s2_v2	unambiguous	v1	v2	s1	s2	4	3	2	1	target	distractor2	distractor1	competitor	target	target	competitor	distractor	1730	v1	59	filler	{us: usx, uv: uv1}	5	7.45587668749182	2	3	unambiguous	target
37	male	English	4.33461666666667	v1	{us: usx, uv: uv1}	{us: us1, uv: uv2}	v2	s1	sx_v1	s1_v2	target_s2_v1	simple	v2	s1	s2	v1	4	1	2	3	distractor1	distractor2	target	competitor	competitor	competitor	distractor	target	1223	s2	60	target	{us: us2, uv: uv1}	5	7.10906213568717	2	3	simple	competitor
37	male	English	4.33461666666667	v1	{us: us1, uv: uvx}	{us: us1, uv: uvx}	s1	v2	s1_vx	s1_vx	target_s2_v1	ambiguous	s2	v1	v2	s1	2	4	3	1	target	competitor	distractor2	distractor1	competitor	distractor	competitor	target	1520	s2	61	filler	{us: us2, uv: uv1}	5	7.32646561384032	2	3	ambiguous	competitor
37	male	English	4.33461666666667	s1	{us: us2, uv: uv1}	{us: us1, uv: uv1}	v1	s2	s1_v1	target_sx_v2	s2_v1	unambiguous	s2	s1	v2	v1	2	4	1	3	distractor2	competitor	target	distractor1	target	distractor	target	competitor	1287	v2	62	filler	{us: usx, uv: uv2}	5	7.16006920759613	2	3	unambiguous	target
37	male	English	4.33461666666667	v1	{us: us2, uv: uv1}	{us: us1, uv: uvx}	s2	v2	target_s1_vx	s1_v1	s2_v1	complex_d	v1	s2	v2	s1	1	2	3	4	competitor	distractor1	distractor2	target	target	distractor	target	competitor	2126	s1	63	filler	{us: us1, uv: uv1}	5	7.66199755890189	2	3	unambiguous	target
37	male	English	4.33461666666667	v2	{us: us2, uv: uv1}	{us: usx, uv: uv2}	v1	s1	sx_v2	target_s2_v2	s2_v1	complex	v2	s1	s2	v1	1	4	2	3	competitor	distractor2	target	distractor1	competitor	distractor	target	competitor	2153	s2	64	target	{us: us2, uv: uv2}	5	7.67461749736436	2	3	complex	competitor
37	male	English	4.33461666666667	v1	{us: usx, uv: uv2}	{us: us1, uv: uv1}	s2	v2	target_s1_v1	sx_v2	s2_v2	simple_d	s1	v1	s2	v2	2	3	4	1	target	competitor	distractor1	distractor2	distractor2	distractor	competitor	target	2139	s1	65	filler	{us: us2, uv: uv2}	5	7.66809370908241	2	3	ambiguous	distractor
56	MALE	ENGLISH	4.03281666666667	s2	{us: usx, uv: uv1}	{us: usx, uv: uv2}	v2	v1	target_s1_vx	sx_v2	sx_v1	unambiguous	s1	v2	s2	v1	3	2	4	1	target	distractor1	competitor	distractor2	target	target	distractor	competitor	26016	s1	0	filler	{us: us1, uv: uvx}	6	10.1664670123475	1	1	unambiguous	target
56	MALE	ENGLISH	4.03281666666667	v1	{us: us2, uv: uvx}	{us: us1, uv: uv2}	v2	s1	target_s2_vx	s1_v2	s2_v1	simple_c	v2	s1	v1	s2	3	1	2	4	distractor1	distractor2	competitor	target	target	competitor	distractor	target	8927	s2	1	filler	{us: us2, uv: uv1}	6	9.09683567117936	1	1	unambiguous	target
56	MALE	ENGLISH	4.03281666666667	v1	{us: us1, uv: uv2}	{us: usx, uv: uv1}	v2	s2	sx_v1	target_s1_v1	s1_v2	complex	s1	v2	v1	s2	3	2	4	1	target	distractor1	competitor	distractor2	target	distractor	target	competitor	3503	s1	2	target	{us: us1, uv: uv1}	6	8.16137502319749	1	1	complex	target
56	MALE	ENGLISH	4.03281666666667	v1	{us: usx, uv: uv2}	{us: usx, uv: uv2}	s2	v2	sx_v2	target_s1_v1	sx_v2	ambiguous	v2	s2	v1	s1	3	2	1	4	distractor2	distractor1	competitor	target	competitor	competitor	target	distractor	4280	s1	3	filler	{us: us1, uv: uv1}	6	8.36170828857584	1	1	ambiguous	competitor
56	MALE	ENGLISH	4.03281666666667	v2	{us: us2, uv: uv2}	{us: us1, uv: uvx}	s2	v1	s1_v2	target_s1_vx	s2_v2	complex_d	s2	v2	v1	s1	2	1	3	4	distractor1	competitor	distractor2	target	target	target	distractor	competitor	6208	s1	4	filler	{us: us1, uv: uv2}	6	8.73359406186306	1	1	unambiguous	target
56	MALE	ENGLISH	4.03281666666667	v1	{us: us2, uv: uv1}	{us: us1, uv: uvx}	s2	v2	s2_v1	s1_v1	target_s1_vx	complex_d	v1	s1	v2	s2	1	4	3	2	competitor	target	distractor2	distractor1	competitor	competitor	target	distractor	3543	s1	5	filler	{us: us1, uv: uv1}	6	8.17272910486547	1	1	unambiguous	competitor
56	MALE	ENGLISH	4.03281666666667	v1	{us: us2, uv: uvx}	{us: us2, uv: uv2}	s2	v2	target_s1_v1	s2_vx	s2_v2	ambiguous	s2	s1	v2	v1	4	1	3	2	distractor1	target	distractor2	competitor	distractor1	target	competitor	distractor	2689	s1	6	filler	{us: us1, uv: uv1}	6	7.89692465626886	1	1	ambiguous	distractor
56	MALE	ENGLISH	4.03281666666667	v2	{us: usx, uv: uv2}	{us: usx, uv: uv2}	v1	s2	target_s1_vx	sx_v2	sx_v2	unambiguous	s2	v1	s1	v2	4	2	1	3	distractor2	distractor1	target	competitor	competitor	target	distractor	competitor	1760	s1	7	filler	{us: us1, uv: uvx}	6	7.4730690880322	1	1	unambiguous	competitor
56	MALE	ENGLISH	4.03281666666667	v2	{us: usx, uv: uv2}	{us: us1, uv: uv1}	s1	v1	target_s2_v2	sx_v2	s1_v1	simple	v2	s2	v1	s1	1	4	3	2	competitor	target	distractor2	distractor1	competitor	target	competitor	distractor	4218	s2	8	target	{us: us2, uv: uv2}	6	8.34711636103872	1	1	simple	competitor
56	MALE	ENGLISH	4.03281666666667	v1	{us: us1, uv: uvx}	{us: us2, uv: uv2}	v2	s2	target_s1_vx	s2_v2	s1_v1	simple_c	s1	v2	s2	v1	4	2	3	1	target	distractor1	distractor2	competitor	target	competitor	distractor	target	4818	s1	9	filler	{us: us1, uv: uv1}	6	8.48011418317482	1	1	unambiguous	target
56	MALE	ENGLISH	4.03281666666667	s1	{us: usx, uv: uv1}	{us: us2, uv: uv2}	s2	v2	s1_v1	s2_v2	target_sx_v1	simple_c	v2	s1	v1	s2	2	4	1	3	distractor2	competitor	target	distractor1	target	target	distractor	competitor	4338	v1	10	filler	{us: us1, uv: uv1}	6	8.37516869138682	1	1	unambiguous	target
56	MALE	ENGLISH	4.03281666666667	v2	{us: us1, uv: uv1}	{us: us1, uv: uvx}	s1	v1	s1_vx	target_s2_v2	s1_v1	ambiguous	s1	s2	v1	v2	4	1	3	2	distractor1	target	distractor2	competitor	distractor1	distractor	target	competitor	4257	s2	11	filler	{us: us2, uv: uv2}	6	8.35631996582815	1	1	ambiguous	distractor
56	MALE	ENGLISH	4.03281666666667	s2	{us: us1, uv: uv2}	{us: us2, uv: uvx}	s1	v1	target_s2_v2	s1_v2	s2_vx	complex	v1	s1	s2	v2	3	2	1	4	distractor2	distractor1	competitor	target	target	target	competitor	distractor	1665	v2	12	target	{us: us2, uv: uv2}	6	7.41758040241454	1	1	complex	target
56	MALE	ENGLISH	4.03281666666667	s2	{us: us1, uv: uv1}	{us: us2, uv: uvx}	s1	v2	s2_vx	s1_v1	target_s2_v1	complex	v2	s2	v1	s1	2	4	1	3	distractor2	competitor	target	distractor1	target	distractor	competitor	target	1527	v1	13	target	{us: us2, uv: uv1}	6	7.33106030521863	1	1	complex	target
